{
  "resourceType": "Questionnaire",
  "id": "qs1",
  "contained": [
    {
      "resourceType": "ValueSet",
      "id": "vs2",
      "identifier": "urn:uuid:7b16cfb6-e559-4e5a-ab43-050073265590",
      "name": "Type options for CarePlan.participant.member",
      "description": "Type options for CarePlan.participant.member",
      "status": "active",
      "expansion": {
        "timestamp": "2014-12-12T13:19:18.756+11:00",
        "contains": [
          {
            "system": "http://hl7.org/fhir/resource-types",
            "code": "Practitioner",
            "display": "Practitioner"
          },
          {
            "system": "http://hl7.org/fhir/resource-types",
            "code": "RelatedPerson",
            "display": "RelatedPerson"
          },
          {
            "system": "http://hl7.org/fhir/resource-types",
            "code": "Patient",
            "display": "Patient"
          },
          {
            "system": "http://hl7.org/fhir/resource-types",
            "code": "Organization",
            "display": "Organization"
          }
        ]
      }
    },
    {
      "resourceType": "ValueSet",
      "id": "vs3",
      "identifier": "urn:uuid:10ec6348-f2fc-424b-9dbe-ccf736c1ba8a",
      "name": "Type options for CarePlan.activity.detail",
      "description": "Type options for CarePlan.activity.detail",
      "status": "active",
      "expansion": {
        "timestamp": "2014-12-12T13:19:18.756+11:00",
        "contains": [
          {
            "system": "http://hl7.org/fhir/resource-types",
            "code": "Procedure",
            "display": "Procedure"
          },
          {
            "system": "http://hl7.org/fhir/resource-types",
            "code": "MedicationPrescription",
            "display": "MedicationPrescription"
          },
          {
            "system": "http://hl7.org/fhir/resource-types",
            "code": "DiagnosticOrder",
            "display": "DiagnosticOrder"
          },
          {
            "system": "http://hl7.org/fhir/resource-types",
            "code": "Encounter",
            "display": "Encounter"
          },
          {
            "system": "http://hl7.org/fhir/resource-types",
            "code": "Supply",
            "display": "Supply"
          }
        ]
      }
    },
    {
      "resourceType": "ValueSet",
      "id": "vs4",
      "identifier": "urn:uuid:5c60a68c-aafa-45c1-b236-6e29b55ee146",
      "name": "Type options for CarePlan.activity.simple.scheduled[x]",
      "description": "Type options for CarePlan.activity.simple.scheduled[x]",
      "status": "active",
      "expansion": {
        "timestamp": "2014-12-12T13:19:18.756+11:00",
        "contains": [
          {
            "system": "http://hl7.org/fhir/data-types",
            "code": "Timing",
            "display": "Timing"
          },
          {
            "system": "http://hl7.org/fhir/data-types",
            "code": "Period",
            "display": "Period"
          },
          {
            "system": "http://hl7.org/fhir/data-types",
            "code": "string",
            "display": "string"
          }
        ]
      }
    },
    {
      "resourceType": "ValueSet",
      "id": "vs5",
      "identifier": "urn:uuid:eca39dac-dc00-47f8-94ef-ef0df5e9df5d",
      "name": "Type options for CarePlan.activity.simple.performer",
      "description": "Type options for CarePlan.activity.simple.performer",
      "status": "active",
      "expansion": {
        "timestamp": "2014-12-12T13:19:18.756+11:00",
        "contains": [
          {
            "system": "http://hl7.org/fhir/resource-types",
            "code": "Practitioner",
            "display": "Practitioner"
          },
          {
            "system": "http://hl7.org/fhir/resource-types",
            "code": "Organization",
            "display": "Organization"
          },
          {
            "system": "http://hl7.org/fhir/resource-types",
            "code": "RelatedPerson",
            "display": "RelatedPerson"
          },
          {
            "system": "http://hl7.org/fhir/resource-types",
            "code": "Patient",
            "display": "Patient"
          }
        ]
      }
    },
    {
      "resourceType": "ValueSet",
      "id": "vs6",
      "identifier": "urn:uuid:30180d08-3882-4052-98bd-8f34d983040c",
      "name": "Type options for CarePlan.activity.simple.product",
      "description": "Type options for CarePlan.activity.simple.product",
      "status": "active",
      "expansion": {
        "timestamp": "2014-12-12T13:19:18.756+11:00",
        "contains": [
          {
            "system": "http://hl7.org/fhir/resource-types",
            "code": "Medication",
            "display": "Medication"
          },
          {
            "system": "http://hl7.org/fhir/resource-types",
            "code": "Substance",
            "display": "Substance"
          }
        ]
      }
    }
  ],
  "identifier": [
    {
      "system": "urn:ietf:rfc:3986"
    }
  ],
  "status": "draft",
  "date": "2014-12-12T13:17:44.755+11:00",
  "publisher": "HL7 FHIR Project (Patient Care)",
  "group": {
    "http://hl7.org/fhir/Profile/questionnaire-extensions#flyover": [
      {
        "valueString": "Describes the intention of how one or more practitioners intend to deliver care for a particular patient for a period of time, possibly limited to care for a specific condition or set of conditions."
      }
    ],
    "linkId": "CarePlan",
    "title": "Healthcare plan for patient",
    "required": true,
    "group": [
      {
        "http://hl7.org/fhir/Profile/questionnaire-extensions#flyover": [
          {
            "valueString": "The logical id of the resource, as used in the url for the resoure. Once assigned, this value never changes. The only time that a resource does not have an id is when it is being submitted to the server using a create operation. Bundles always have an id, though it is usually a generated UUID."
          }
        ],
        "http://www.healthintersections.com.au/fhir/Profile/metadata#type": [
          {
            "valueString": "string"
          }
        ],
        "linkId": "CarePlan.id",
        "repeats": true,
        "question": [
          {
            "linkId": "CarePlan.id.value",
            "text": "Logical id of this artefact",
            "type": "string"
          }
        ]
      },
      {
        "http://hl7.org/fhir/Profile/questionnaire-extensions#flyover": [
          {
            "valueString": "The metadata about the resource. This is content that is maintained by the infrastructure. Changes to the content may not always be associated with version changes to the resource."
          }
        ],
        "linkId": "CarePlan.meta",
        "title": "Metadata about the resource",
        "group": [
          {
            "http://hl7.org/fhir/Profile/questionnaire-extensions#flyover": [
              {
                "valueString": "unique id for the element within a resource (for internal references)."
              }
            ],
            "http://www.healthintersections.com.au/fhir/Profile/metadata#type": [
              {
                "valueString": "string"
              }
            ],
            "linkId": "CarePlan.meta.id",
            "repeats": true,
            "question": [
              {
                "linkId": "CarePlan.meta.id.value",
                "text": "xml:id (or equivalent in JSON)",
                "type": "string"
              }
            ]
          },
          {
            "http://hl7.org/fhir/Profile/questionnaire-extensions#flyover": [
              {
                "valueString": "The version specific identifier, as it appears in the version portion of the url. This values changes when the resource is created, updated, or deleted. The server assigns this value, and ignores what the client specifies, except in the case that the server is imposing version integrity on updates/deletes."
              }
            ],
            "http://www.healthintersections.com.au/fhir/Profile/metadata#type": [
              {
                "valueString": "string"
              }
            ],
            "linkId": "CarePlan.meta.versionId",
            "repeats": true,
            "question": [
              {
                "linkId": "CarePlan.meta.versionId.value",
                "text": "Version specific identifier",
                "type": "string"
              }
            ]
          },
          {
            "http://hl7.org/fhir/Profile/questionnaire-extensions#flyover": [
              {
                "valueString": "When the resource last changed - e.g. when the version changed. This value is always populated except when the resource is first being created. The server / resource manager sets this value; what a client provides is irrelevant."
              }
            ],
            "http://www.healthintersections.com.au/fhir/Profile/metadata#type": [
              {
                "valueString": "instant"
              }
            ],
            "linkId": "CarePlan.meta.lastUpdated",
            "repeats": true,
            "question": [
              {
                "linkId": "CarePlan.meta.lastUpdated.value",
                "text": "When the resource version last changed",
                "type": "instant"
              }
            ]
          },
          {
            "http://hl7.org/fhir/Profile/questionnaire-extensions#flyover": [
              {
                "valueString": "A list of profiles that this resource claims to conform to. The URL is a reference to Profile.url. It is up to the server and/or other infrastruture of policy to determine whether/how these claims are verified and/or updated over tiem."
              }
            ],
            "http://www.healthintersections.com.au/fhir/Profile/metadata#type": [
              {
                "valueString": "uri"
              }
            ],
            "linkId": "CarePlan.meta.profile",
            "repeats": true,
            "question": [
              {
                "linkId": "CarePlan.meta.profile.value",
                "text": "Profiles this resource claims to conform to",
                "type": "string"
              }
            ]
          },
          {
            "http://hl7.org/fhir/Profile/questionnaire-extensions#flyover": [
              {
                "valueString": "Security labels applied to this resource. These tags connect specific resources to the overall security policy and infrastructure. The security labels can be updated without changing the stated version of the resource."
              }
            ],
            "http://www.healthintersections.com.au/fhir/Profile/metadata#type": [
              {
                "valueString": "Coding"
              }
            ],
            "linkId": "CarePlan.meta.security",
            "repeats": true,
            "question": [
              {
                "linkId": "CarePlan.meta.security.value",
                "text": "Security Labels applied to this resource",
                "type": "open-choice"
              }
            ]
          },
          {
            "http://hl7.org/fhir/Profile/questionnaire-extensions#flyover": [
              {
                "valueString": "Tags applied to this resource. Tags are intended to to be used to identify and relate resources to process and workflow, and applications are not required to consider the tags when interpreting the meaning of a resource. The tags can be updated without changing the stated version of the resource."
              }
            ],
            "http://www.healthintersections.com.au/fhir/Profile/metadata#type": [
              {
                "valueString": "Coding"
              }
            ],
            "linkId": "CarePlan.meta.tag",
            "repeats": true,
            "question": [
              {
                "linkId": "CarePlan.meta.tag.value",
                "text": "Tags applied",
                "type": "open-choice"
              }
            ]
          }
        ]
      },
      {
        "http://hl7.org/fhir/Profile/questionnaire-extensions#flyover": [
          {
            "valueString": "A reference to a set of rules that were followed when the resource was constructed, and which must be understood when processing the content. Asserting this rule set restricts the content to be only understood by a limited set of trading partners. This inherently limits the usefulness of the data in the long term. However the existing health eco-system is highly fractured, and not yet ready to define, collect, and exchange data in a generally computable sense. Wherever possible, implementers and/or specification writers should avoid using this element as much as possible."
          }
        ],
        "http://www.healthintersections.com.au/fhir/Profile/metadata#type": [
          {
            "valueString": "uri"
          }
        ],
        "linkId": "CarePlan.implicitRules",
        "repeats": true,
        "question": [
          {
            "linkId": "CarePlan.implicitRules.value",
            "text": "A set of rules under which this content was created",
            "type": "string"
          }
        ]
      },
      {
        "http://hl7.org/fhir/Profile/questionnaire-extensions#flyover": [
          {
            "valueString": "The base language in which the resource is written. Language is provided to support indexing and accessibility (typically, services such as text to speech use the language tag). The html language tag in the narrative applies  to the narrative. The language tag on the resource may be used to specify the language of other presentations generated from the data in the resource\n\nNot all the content has to be in the base language. The Resource.language should not be assumed to apply to the narrative automatically. If a language is specified, it should it also be specified on the div element in the html (see rules in HTML5 for information about the relationship between xml:lang and the html lang attribute)."
          }
        ],
        "http://www.healthintersections.com.au/fhir/Profile/metadata#type": [
          {
            "valueString": "code"
          }
        ],
        "linkId": "CarePlan.language",
        "repeats": true,
        "question": [
          {
            "linkId": "CarePlan.language.value",
            "text": "language",
            "type": "choice"
          }
        ]
      },
      {
        "http://hl7.org/fhir/Profile/questionnaire-extensions#flyover": [
          {
            "valueString": "A human-readable narrative that contains a summary of the resource, and may be used to represent the content of the resource to a human. The narrative need not encode all the structured data, but is required to contain sufficient detail to make it \"clinically safe\" for a human to just read the narrative. Resource definitions may define what content should be represented in the narrative to ensure clinical safety. Contained resources do not have narrative. Resources that are not contained SHOULD have a narrative."
          }
        ],
        "linkId": "CarePlan.text",
        "text": "Text summary of the resource, for human interpretation",
        "repeats": true
      },
      {
        "http://hl7.org/fhir/Profile/questionnaire-extensions#flyover": [
          {
            "valueString": "These resources do not have an independent existence apart from the resource that contains them - they cannot be identified independently, and nor can they have their own independent transaction scope. This should never be done when the content can be identified properly, as once identification is lost, it is extremely difficult (and context dependent) to restore it again."
          }
        ],
        "linkId": "CarePlan.contained",
        "text": "Contained, inline Resources",
        "repeats": true
      },
      {
        "http://hl7.org/fhir/Profile/questionnaire-extensions#flyover": [
          {
            "valueString": "This records identifiers associated with this care plan that are defined by business processed and/ or used to refer to it when a direct URL reference to the resource itself is not appropriate (e.g. in CDA documents, or in written / printed documentation)."
          }
        ],
        "http://www.healthintersections.com.au/fhir/Profile/metadata#type": [
          {
            "valueString": "Identifier"
          }
        ],
        "linkId": "CarePlan.identifier",
        "text": "External Ids for this plan",
        "repeats": true,
        "question": [
          {
            "linkId": "CarePlan.identifier.label",
            "text": "label:",
            "type": "string"
          },
          {
            "linkId": "CarePlan.identifier.system",
            "text": "system:",
            "type": "string"
          },
          {
            "linkId": "CarePlan.identifier.value",
            "text": "value:",
            "type": "string"
          }
        ]
      },
      {
        "http://hl7.org/fhir/Profile/questionnaire-extensions#flyover": [
          {
            "valueString": "Identifies the patient/subject whose intended care is described by the plan."
          }
        ],
        "http://www.healthintersections.com.au/fhir/Profile/metadata#type": [
          {
            "valueString": "Reference"
          }
        ],
        "linkId": "CarePlan.patient",
        "repeats": true,
        "question": [
          {
            "http://www.healthintersections.com.au/fhir/Profile/metadata#reference": [
              {
                "valueString": "/Patient?subject=$subj&patient=$subj&encounter=$encounter"
              }
            ],
            "linkId": "CarePlan.patient.value",
            "text": "Who care plan is for",
            "type": "reference"
          }
        ]
      },
      {
        "http://hl7.org/fhir/Profile/questionnaire-extensions#flyover": [
          {
            "valueString": "Indicates whether the plan is currently being acted upon, represents future intentions or is now just historical record."
          }
        ],
        "http://www.healthintersections.com.au/fhir/Profile/metadata#type": [
          {
            "valueString": "code"
          }
        ],
        "linkId": "CarePlan.status",
        "required": true,
        "repeats": true,
        "question": [
          {
            "linkId": "CarePlan.status.value",
            "text": "status",
            "type": "choice"
          }
        ]
      },
      {
        "http://hl7.org/fhir/Profile/questionnaire-extensions#flyover": [
          {
            "valueString": "Indicates when the plan did (or is intended to) come into effect and end. Any activities scheduled as part of the plan should be constrained to the specified period."
          }
        ],
        "http://www.healthintersections.com.au/fhir/Profile/metadata#type": [
          {
            "valueString": "Period"
          }
        ],
        "linkId": "CarePlan.period",
        "text": "Time period plan covers",
        "repeats": true,
        "question": [
          {
            "linkId": "CarePlan.period.low",
            "text": "start:",
            "type": "dateTime"
          },
          {
            "linkId": "CarePlan.period.end",
            "text": "end:",
            "type": "dateTime"
          }
        ]
      },
      {
        "http://hl7.org/fhir/Profile/questionnaire-extensions#flyover": [
          {
            "valueString": "Identifies the most recent date on which the plan has been revised."
          }
        ],
        "http://www.healthintersections.com.au/fhir/Profile/metadata#type": [
          {
            "valueString": "datetime"
          }
        ],
        "linkId": "CarePlan.modified",
        "repeats": true,
        "question": [
          {
            "linkId": "CarePlan.modified.value",
            "text": "When last updated",
            "type": "dateTime"
          }
        ]
      },
      {
        "http://hl7.org/fhir/Profile/questionnaire-extensions#flyover": [
          {
            "valueString": "Identifies the conditions/problems/concerns/diagnoses/etc. whose management and/or mitigation are handled by this plan."
          }
        ],
        "http://www.healthintersections.com.au/fhir/Profile/metadata#type": [
          {
            "valueString": "Reference"
          }
        ],
        "linkId": "CarePlan.concern",
        "repeats": true,
        "question": [
          {
            "http://www.healthintersections.com.au/fhir/Profile/metadata#reference": [
              {
                "valueString": "/Condition?subject=$subj&patient=$subj&encounter=$encounter"
              }
            ],
            "linkId": "CarePlan.concern.value",
            "text": "Health issues this plan addresses",
            "type": "reference"
          }
        ]
      },
      {
        "http://hl7.org/fhir/Profile/questionnaire-extensions#flyover": [
          {
            "valueString": "Identifies all people and organizations who are expected to be involved in the care envisioned by this plan."
          }
        ],
        "linkId": "CarePlan.participant",
        "title": "Who's involved in plan?",
        "repeats": true,
        "group": [
          {
            "http://hl7.org/fhir/Profile/questionnaire-extensions#flyover": [
              {
                "valueString": "unique id for the element within a resource (for internal references)."
              }
            ],
            "http://www.healthintersections.com.au/fhir/Profile/metadata#type": [
              {
                "valueString": "string"
              }
            ],
            "linkId": "CarePlan.participant.id",
            "repeats": true,
            "question": [
              {
                "linkId": "CarePlan.participant.id.value",
                "text": "xml:id (or equivalent in JSON)",
                "type": "string"
              }
            ]
          },
          {
            "http://hl7.org/fhir/Profile/questionnaire-extensions#flyover": [
              {
                "valueString": "Indicates specific responsibility of an individual within the care plan.  E.g. \"Primary physician\", \"Team coordinator\", \"Caregiver\", etc. Roles may sometimes be inferred by type of Practitioner.  These are relationships that hold only within the context of the care plan.  General relationships should be handled as properties of the Patient resource directly."
              }
            ],
            "http://www.healthintersections.com.au/fhir/Profile/metadata#type": [
              {
                "valueString": "CodeableConcept"
              }
            ],
            "linkId": "CarePlan.participant.role",
            "text": "Type of involvement",
            "repeats": true,
            "question": [
              {
                "linkId": "CarePlan.participant.role.coding",
                "text": "code:",
                "type": "open-choice"
              },
              {
                "linkId": "CarePlan.participant.role.text",
                "text": "text:",
                "type": "string"
              }
            ]
          },
          {
            "http://hl7.org/fhir/Profile/questionnaire-extensions#flyover": [
              {
                "valueString": "The specific person or organization who is participating/expected to participate in the care plan. Patient only needs to be listed if they have a role other than \"subject of care\"."
              }
            ],
            "linkId": "CarePlan.participant.member",
            "text": "Who is involved",
            "required": true,
            "repeats": true,
            "question": [
              {
                "linkId": "CarePlan.participant.member._type",
                "text": "type",
                "type": "choice",
                "options": {
                  "reference": "#vs2"
                },
                "group": [
                  {
                    "http://www.healthintersections.com.au/fhir/Profile/metadata#type": [
                      {
                        "valueString": "Reference"
                      }
                    ],
                    "linkId": "CarePlan.participant.member._Practitioner",
                    "question": [
                      {
                        "http://www.healthintersections.com.au/fhir/Profile/metadata#reference": [
                          {
                            "valueString": "/Practitioner?subject=$subj&patient=$subj&encounter=$encounter"
                          }
                        ],
                        "linkId": "CarePlan.participant.member._Practitioner.value",
                        "text": "Practitioner",
                        "type": "reference"
                      }
                    ]
                  },
                  {
                    "http://www.healthintersections.com.au/fhir/Profile/metadata#type": [
                      {
                        "valueString": "Reference"
                      }
                    ],
                    "linkId": "CarePlan.participant.member._RelatedPerson",
                    "question": [
                      {
                        "http://www.healthintersections.com.au/fhir/Profile/metadata#reference": [
                          {
                            "valueString": "/RelatedPerson?subject=$subj&patient=$subj&encounter=$encounter"
                          }
                        ],
                        "linkId": "CarePlan.participant.member._RelatedPerson.value",
                        "text": "RelatedPerson",
                        "type": "reference"
                      }
                    ]
                  },
                  {
                    "http://www.healthintersections.com.au/fhir/Profile/metadata#type": [
                      {
                        "valueString": "Reference"
                      }
                    ],
                    "linkId": "CarePlan.participant.member._Patient",
                    "question": [
                      {
                        "http://www.healthintersections.com.au/fhir/Profile/metadata#reference": [
                          {
                            "valueString": "/Patient?subject=$subj&patient=$subj&encounter=$encounter"
                          }
                        ],
                        "linkId": "CarePlan.participant.member._Patient.value",
                        "text": "Patient",
                        "type": "reference"
                      }
                    ]
                  },
                  {
                    "http://www.healthintersections.com.au/fhir/Profile/metadata#type": [
                      {
                        "valueString": "Reference"
                      }
                    ],
                    "linkId": "CarePlan.participant.member._Organization",
                    "question": [
                      {
                        "http://www.healthintersections.com.au/fhir/Profile/metadata#reference": [
                          {
                            "valueString": "/Organization?subject=$subj&patient=$subj&encounter=$encounter"
                          }
                        ],
                        "linkId": "CarePlan.participant.member._Organization.value",
                        "text": "Organization",
                        "type": "reference"
                      }
                    ]
                  }
                ]
              }
            ]
          }
        ]
      },
      {
        "http://hl7.org/fhir/Profile/questionnaire-extensions#flyover": [
          {
            "valueString": "Describes the intended objective(s) of carrying out the Care Plan."
          }
        ],
        "linkId": "CarePlan.goal",
        "title": "Desired outcome of plan",
        "text": "Goal can be achieving a particular change or merely maintaining a current state or even slowing a decline.",
        "repeats": true,
        "group": [
          {
            "http://hl7.org/fhir/Profile/questionnaire-extensions#flyover": [
              {
                "valueString": "unique id for the element within a resource (for internal references)."
              }
            ],
            "http://www.healthintersections.com.au/fhir/Profile/metadata#type": [
              {
                "valueString": "string"
              }
            ],
            "linkId": "CarePlan.goal.id",
            "repeats": true,
            "question": [
              {
                "linkId": "CarePlan.goal.id.value",
                "text": "xml:id (or equivalent in JSON)",
                "type": "string"
              }
            ]
          },
          {
            "http://hl7.org/fhir/Profile/questionnaire-extensions#flyover": [
              {
                "valueString": "Human-readable description of a specific desired objective of the care plan."
              }
            ],
            "http://www.healthintersections.com.au/fhir/Profile/metadata#type": [
              {
                "valueString": "string"
              }
            ],
            "linkId": "CarePlan.goal.description",
            "required": true,
            "repeats": true,
            "question": [
              {
                "linkId": "CarePlan.goal.description.value",
                "text": "What's the desired outcome?",
                "type": "string"
              }
            ]
          },
          {
            "http://hl7.org/fhir/Profile/questionnaire-extensions#flyover": [
              {
                "valueString": "Indicates whether the goal has been reached and is still considered relevant."
              }
            ],
            "http://www.healthintersections.com.au/fhir/Profile/metadata#type": [
              {
                "valueString": "code"
              }
            ],
            "linkId": "CarePlan.goal.status",
            "repeats": true,
            "question": [
              {
                "linkId": "CarePlan.goal.status.value",
                "text": "status",
                "type": "choice"
              }
            ]
          },
          {
            "http://hl7.org/fhir/Profile/questionnaire-extensions#flyover": [
              {
                "valueString": "Any comments related to the goal. May be used for progress notes, concerns or other related information that doesn't actually describe the goal itself."
              }
            ],
            "http://www.healthintersections.com.au/fhir/Profile/metadata#type": [
              {
                "valueString": "string"
              }
            ],
            "linkId": "CarePlan.goal.notes",
            "repeats": true,
            "question": [
              {
                "linkId": "CarePlan.goal.notes.value",
                "text": "Comments about the goal",
                "type": "string"
              }
            ]
          },
          {
            "http://hl7.org/fhir/Profile/questionnaire-extensions#flyover": [
              {
                "valueString": "The identified conditions that this goal relates to - the condition that caused it to be created, or that it is intended to address. The concerns do not also need to be listed under CarePlan.concern, but may be."
              }
            ],
            "http://www.healthintersections.com.au/fhir/Profile/metadata#type": [
              {
                "valueString": "Reference"
              }
            ],
            "linkId": "CarePlan.goal.concern",
            "repeats": true,
            "question": [
              {
                "http://www.healthintersections.com.au/fhir/Profile/metadata#reference": [
                  {
                    "valueString": "/Condition?subject=$subj&patient=$subj&encounter=$encounter"
                  }
                ],
                "linkId": "CarePlan.goal.concern.value",
                "text": "Health issues this goal addresses",
                "type": "reference"
              }
            ]
          }
        ]
      },
      {
        "http://hl7.org/fhir/Profile/questionnaire-extensions#flyover": [
          {
            "valueString": "Identifies a planned action to occur as part of the plan.  For example, a medication to be used, lab tests to perform, self-monitoring, education, etc."
          }
        ],
        "linkId": "CarePlan.activity",
        "title": "Action to occur as part of plan",
        "repeats": true,
        "group": [
          {
            "http://hl7.org/fhir/Profile/questionnaire-extensions#flyover": [
              {
                "valueString": "unique id for the element within a resource (for internal references)."
              }
            ],
            "http://www.healthintersections.com.au/fhir/Profile/metadata#type": [
              {
                "valueString": "string"
              }
            ],
            "linkId": "CarePlan.activity.id",
            "repeats": true,
            "question": [
              {
                "linkId": "CarePlan.activity.id.value",
                "text": "xml:id (or equivalent in JSON)",
                "type": "string"
              }
            ]
          },
          {
            "http://hl7.org/fhir/Profile/questionnaire-extensions#flyover": [
              {
                "valueString": "Internal reference that identifies the goals that this activity is intended to contribute towards meeting."
              }
            ],
            "http://www.healthintersections.com.au/fhir/Profile/metadata#type": [
              {
                "valueString": "uri"
              }
            ],
            "linkId": "CarePlan.activity.goal",
            "repeats": true,
            "question": [
              {
                "linkId": "CarePlan.activity.goal.value",
                "text": "Goals this activity relates to",
                "type": "string"
              }
            ]
          },
          {
            "http://hl7.org/fhir/Profile/questionnaire-extensions#flyover": [
              {
                "valueString": "Identifies what progress is being made for the specific activity. Some aspects of Status can be inferred based on the resources linked in actionTaken.  Note that \"status\" is only as current as the plan was most recently updated."
              }
            ],
            "http://www.healthintersections.com.au/fhir/Profile/metadata#type": [
              {
                "valueString": "code"
              }
            ],
            "linkId": "CarePlan.activity.status",
            "repeats": true,
            "question": [
              {
                "linkId": "CarePlan.activity.status.value",
                "text": "status",
                "type": "choice"
              }
            ]
          },
          {
            "http://hl7.org/fhir/Profile/questionnaire-extensions#flyover": [
              {
                "valueString": "If true, indicates that the described activity is one that must NOT be engaged in when following the plan."
              }
            ],
            "http://www.healthintersections.com.au/fhir/Profile/metadata#type": [
              {
                "valueString": "boolean"
              }
            ],
            "linkId": "CarePlan.activity.prohibited",
            "required": true,
            "repeats": true,
            "question": [
              {
                "linkId": "CarePlan.activity.prohibited.value",
                "text": "Do NOT do",
                "type": "boolean"
              }
            ]
          },
          {
            "http://hl7.org/fhir/Profile/questionnaire-extensions#flyover": [
              {
                "valueString": "Resources that describe follow-on actions resulting from the plan, such as drug prescriptions, encounter records, appointments, etc."
              }
            ],
            "http://www.healthintersections.com.au/fhir/Profile/metadata#type": [
              {
                "valueString": "Reference"
              }
            ],
            "linkId": "CarePlan.activity.actionResulting",
            "repeats": true,
            "question": [
              {
                "http://www.healthintersections.com.au/fhir/Profile/metadata#reference": [
                  {
                    "valueString": "/_search?subject=$subj&patient=$subj&encounter=$encounter"
                  }
                ],
                "linkId": "CarePlan.activity.actionResulting.value",
                "text": "Appointments, orders, etc.",
                "type": "reference"
              }
            ]
          },
          {
            "http://hl7.org/fhir/Profile/questionnaire-extensions#flyover": [
              {
                "valueString": "Notes about the execution of the activity. Doesn't describe the activity - that goes in details."
              }
            ],
            "http://www.healthintersections.com.au/fhir/Profile/metadata#type": [
              {
                "valueString": "string"
              }
            ],
            "linkId": "CarePlan.activity.notes",
            "repeats": true,
            "question": [
              {
                "linkId": "CarePlan.activity.notes.value",
                "text": "Comments about the activity",
                "type": "string"
              }
            ]
          },
          {
            "http://hl7.org/fhir/Profile/questionnaire-extensions#flyover": [
              {
                "valueString": "The details of the proposed activity represented in a specific resource."
              }
            ],
            "linkId": "CarePlan.activity.detail",
            "text": "Activity details defined in specific resource",
            "repeats": true,
            "question": [
              {
                "linkId": "CarePlan.activity.detail._type",
                "text": "type",
                "type": "choice",
                "options": {
                  "reference": "#vs3"
                },
                "group": [
                  {
                    "http://www.healthintersections.com.au/fhir/Profile/metadata#type": [
                      {
                        "valueString": "Reference"
                      }
                    ],
                    "linkId": "CarePlan.activity.detail._Procedure",
                    "question": [
                      {
                        "http://www.healthintersections.com.au/fhir/Profile/metadata#reference": [
                          {
                            "valueString": "/Procedure?subject=$subj&patient=$subj&encounter=$encounter"
                          }
                        ],
                        "linkId": "CarePlan.activity.detail._Procedure.value",
                        "text": "Procedure",
                        "type": "reference"
                      }
                    ]
                  },
                  {
                    "http://www.healthintersections.com.au/fhir/Profile/metadata#type": [
                      {
                        "valueString": "Reference"
                      }
                    ],
                    "linkId": "CarePlan.activity.detail._MedicationPrescription",
                    "question": [
                      {
                        "http://www.healthintersections.com.au/fhir/Profile/metadata#reference": [
                          {
                            "valueString": "/MedicationPrescription?subject=$subj&patient=$subj&encounter=$encounter"
                          }
                        ],
                        "linkId": "CarePlan.activity.detail._MedicationPrescription.value",
                        "text": "MedicationPrescription",
                        "type": "reference"
                      }
                    ]
                  },
                  {
                    "http://www.healthintersections.com.au/fhir/Profile/metadata#type": [
                      {
                        "valueString": "Reference"
                      }
                    ],
                    "linkId": "CarePlan.activity.detail._DiagnosticOrder",
                    "question": [
                      {
                        "http://www.healthintersections.com.au/fhir/Profile/metadata#reference": [
                          {
                            "valueString": "/DiagnosticOrder?subject=$subj&patient=$subj&encounter=$encounter"
                          }
                        ],
                        "linkId": "CarePlan.activity.detail._DiagnosticOrder.value",
                        "text": "DiagnosticOrder",
                        "type": "reference"
                      }
                    ]
                  },
                  {
                    "http://www.healthintersections.com.au/fhir/Profile/metadata#type": [
                      {
                        "valueString": "Reference"
                      }
                    ],
                    "linkId": "CarePlan.activity.detail._Encounter",
                    "question": [
                      {
                        "http://www.healthintersections.com.au/fhir/Profile/metadata#reference": [
                          {
                            "valueString": "/Encounter?subject=$subj&patient=$subj&encounter=$encounter"
                          }
                        ],
                        "linkId": "CarePlan.activity.detail._Encounter.value",
                        "text": "Encounter",
                        "type": "reference"
                      }
                    ]
                  },
                  {
                    "http://www.healthintersections.com.au/fhir/Profile/metadata#type": [
                      {
                        "valueString": "Reference"
                      }
                    ],
                    "linkId": "CarePlan.activity.detail._Supply",
                    "question": [
                      {
                        "http://www.healthintersections.com.au/fhir/Profile/metadata#reference": [
                          {
                            "valueString": "/Supply?subject=$subj&patient=$subj&encounter=$encounter"
                          }
                        ],
                        "linkId": "CarePlan.activity.detail._Supply.value",
                        "text": "Supply",
                        "type": "reference"
                      }
                    ]
                  }
                ]
              }
            ]
          },
          {
            "http://hl7.org/fhir/Profile/questionnaire-extensions#flyover": [
              {
                "valueString": "A simple summary of details suitable for a general care plan system (e.g. form driven) that doesn't know about specific resources such as procedure etc."
              }
            ],
            "linkId": "CarePlan.activity.simple",
            "title": "Activity details summarised here",
            "group": [
              {
                "http://hl7.org/fhir/Profile/questionnaire-extensions#flyover": [
                  {
                    "valueString": "unique id for the element within a resource (for internal references)."
                  }
                ],
                "http://www.healthintersections.com.au/fhir/Profile/metadata#type": [
                  {
                    "valueString": "string"
                  }
                ],
                "linkId": "CarePlan.activity.simple.id",
                "repeats": true,
                "question": [
                  {
                    "linkId": "CarePlan.activity.simple.id.value",
                    "text": "xml:id (or equivalent in JSON)",
                    "type": "string"
                  }
                ]
              },
              {
                "http://hl7.org/fhir/Profile/questionnaire-extensions#flyover": [
                  {
                    "valueString": "High-level categorization of the type of activity in a care plan."
                  }
                ],
                "http://www.healthintersections.com.au/fhir/Profile/metadata#type": [
                  {
                    "valueString": "code"
                  }
                ],
                "linkId": "CarePlan.activity.simple.category",
                "required": true,
                "repeats": true,
                "question": [
                  {
                    "linkId": "CarePlan.activity.simple.category.value",
                    "text": "category",
                    "type": "choice"
                  }
                ]
              },
              {
                "http://hl7.org/fhir/Profile/questionnaire-extensions#flyover": [
                  {
                    "valueString": "Detailed description of the type of activity.  E.g. What lab test, what procedure, what kind of encounter. Tends to be less relevant for activities involving particular products.  Codes should not convey negation - use \"prohibited\" instead."
                  }
                ],
                "http://www.healthintersections.com.au/fhir/Profile/metadata#type": [
                  {
                    "valueString": "CodeableConcept"
                  }
                ],
                "linkId": "CarePlan.activity.simple.code",
                "text": "Detail type of activity",
                "repeats": true,
                "question": [
                  {
                    "linkId": "CarePlan.activity.simple.code.coding",
                    "text": "code:",
                    "type": "open-choice"
                  },
                  {
                    "linkId": "CarePlan.activity.simple.code.text",
                    "text": "text:",
                    "type": "string"
                  }
                ]
              },
              {
                "http://hl7.org/fhir/Profile/questionnaire-extensions#flyover": [
                  {
                    "valueString": "The period, timing or frequency upon which the described activity is to occur."
                  }
                ],
                "linkId": "CarePlan.activity.simple.scheduled[x]",
                "text": "When activity is to occur",
                "repeats": true,
                "question": [
                  {
                    "linkId": "CarePlan.activity.simple.scheduled[x]._type",
                    "text": "type",
                    "type": "choice",
                    "options": {
                      "reference": "#vs4"
                    },
                    "group": [
                      {
                        "http://www.healthintersections.com.au/fhir/Profile/metadata#type": [
                          {
                            "valueString": "Schedule"
                          }
                        ],
                        "linkId": "CarePlan.activity.simple.scheduled[x]._Timing",
                        "text": "Timing"
                      },
                      {
                        "http://www.healthintersections.com.au/fhir/Profile/metadata#type": [
                          {
                            "valueString": "Period"
                          }
                        ],
                        "linkId": "CarePlan.activity.simple.scheduled[x]._Period",
                        "text": "Period",
                        "question": [
                          {
                            "linkId": "CarePlan.activity.simple.scheduled[x]._Period.low",
                            "text": "start:",
                            "type": "dateTime"
                          },
                          {
                            "linkId": "CarePlan.activity.simple.scheduled[x]._Period.end",
                            "text": "end:",
                            "type": "dateTime"
                          }
                        ]
                      },
                      {
                        "http://www.healthintersections.com.au/fhir/Profile/metadata#type": [
                          {
                            "valueString": "string"
                          }
                        ],
                        "linkId": "CarePlan.activity.simple.scheduled[x]._string",
                        "question": [
                          {
                            "linkId": "CarePlan.activity.simple.scheduled[x]._string.value",
                            "text": "string",
                            "type": "string"
                          }
                        ]
                      }
                    ]
                  }
                ]
              },
              {
                "http://hl7.org/fhir/Profile/questionnaire-extensions#flyover": [
                  {
                    "valueString": "Identifies the facility where the activity will occur.  E.g. home, hospital, specific clinic, etc. May reference a specific clinical location or may just identify a type of location."
                  }
                ],
                "http://www.healthintersections.com.au/fhir/Profile/metadata#type": [
                  {
                    "valueString": "Reference"
                  }
                ],
                "linkId": "CarePlan.activity.simple.location",
                "repeats": true,
                "question": [
                  {
                    "http://www.healthintersections.com.au/fhir/Profile/metadata#reference": [
                      {
                        "valueString": "/Location?subject=$subj&patient=$subj&encounter=$encounter"
                      }
                    ],
                    "linkId": "CarePlan.activity.simple.location.value",
                    "text": "Where it should happen",
                    "type": "reference"
                  }
                ]
              },
              {
                "http://hl7.org/fhir/Profile/questionnaire-extensions#flyover": [
                  {
                    "valueString": "Identifies who's expected to be involved in the activity. A performer MAY also be a participant in the care plan."
                  }
                ],
                "linkId": "CarePlan.activity.simple.performer",
                "text": "Who's responsible?",
                "repeats": true,
                "question": [
                  {
                    "linkId": "CarePlan.activity.simple.performer._type",
                    "text": "type",
                    "type": "choice",
                    "options": {
                      "reference": "#vs5"
                    },
                    "group": [
                      {
                        "http://www.healthintersections.com.au/fhir/Profile/metadata#type": [
                          {
                            "valueString": "Reference"
                          }
                        ],
                        "linkId": "CarePlan.activity.simple.performer._Practitioner",
                        "question": [
                          {
                            "http://www.healthintersections.com.au/fhir/Profile/metadata#reference": [
                              {
                                "valueString": "/Practitioner?subject=$subj&patient=$subj&encounter=$encounter"
                              }
                            ],
                            "linkId": "CarePlan.activity.simple.performer._Practitioner.value",
                            "text": "Practitioner",
                            "type": "reference"
                          }
                        ]
                      },
                      {
                        "http://www.healthintersections.com.au/fhir/Profile/metadata#type": [
                          {
                            "valueString": "Reference"
                          }
                        ],
                        "linkId": "CarePlan.activity.simple.performer._Organization",
                        "question": [
                          {
                            "http://www.healthintersections.com.au/fhir/Profile/metadata#reference": [
                              {
                                "valueString": "/Organization?subject=$subj&patient=$subj&encounter=$encounter"
                              }
                            ],
                            "linkId": "CarePlan.activity.simple.performer._Organization.value",
                            "text": "Organization",
                            "type": "reference"
                          }
                        ]
                      },
                      {
                        "http://www.healthintersections.com.au/fhir/Profile/metadata#type": [
                          {
                            "valueString": "Reference"
                          }
                        ],
                        "linkId": "CarePlan.activity.simple.performer._RelatedPerson",
                        "question": [
                          {
                            "http://www.healthintersections.com.au/fhir/Profile/metadata#reference": [
                              {
                                "valueString": "/RelatedPerson?subject=$subj&patient=$subj&encounter=$encounter"
                              }
                            ],
                            "linkId": "CarePlan.activity.simple.performer._RelatedPerson.value",
                            "text": "RelatedPerson",
                            "type": "reference"
                          }
                        ]
                      },
                      {
                        "http://www.healthintersections.com.au/fhir/Profile/metadata#type": [
                          {
                            "valueString": "Reference"
                          }
                        ],
                        "linkId": "CarePlan.activity.simple.performer._Patient",
                        "question": [
                          {
                            "http://www.healthintersections.com.au/fhir/Profile/metadata#reference": [
                              {
                                "valueString": "/Patient?subject=$subj&patient=$subj&encounter=$encounter"
                              }
                            ],
                            "linkId": "CarePlan.activity.simple.performer._Patient.value",
                            "text": "Patient",
                            "type": "reference"
                          }
                        ]
                      }
                    ]
                  }
                ]
              },
              {
                "http://hl7.org/fhir/Profile/questionnaire-extensions#flyover": [
                  {
                    "valueString": "Identifies the food, drug or other product being consumed or supplied in the activity."
                  }
                ],
                "linkId": "CarePlan.activity.simple.product",
                "text": "What's administered/supplied",
                "repeats": true,
                "question": [
                  {
                    "linkId": "CarePlan.activity.simple.product._type",
                    "text": "type",
                    "type": "choice",
                    "options": {
                      "reference": "#vs6"
                    },
                    "group": [
                      {
                        "http://www.healthintersections.com.au/fhir/Profile/metadata#type": [
                          {
                            "valueString": "Reference"
                          }
                        ],
                        "linkId": "CarePlan.activity.simple.product._Medication",
                        "question": [
                          {
                            "http://www.healthintersections.com.au/fhir/Profile/metadata#reference": [
                              {
                                "valueString": "/Medication?subject=$subj&patient=$subj&encounter=$encounter"
                              }
                            ],
                            "linkId": "CarePlan.activity.simple.product._Medication.value",
                            "text": "Medication",
                            "type": "reference"
                          }
                        ]
                      },
                      {
                        "http://www.healthintersections.com.au/fhir/Profile/metadata#type": [
                          {
                            "valueString": "Reference"
                          }
                        ],
                        "linkId": "CarePlan.activity.simple.product._Substance",
                        "question": [
                          {
                            "http://www.healthintersections.com.au/fhir/Profile/metadata#reference": [
                              {
                                "valueString": "/Substance?subject=$subj&patient=$subj&encounter=$encounter"
                              }
                            ],
                            "linkId": "CarePlan.activity.simple.product._Substance.value",
                            "text": "Substance",
                            "type": "reference"
                          }
                        ]
                      }
                    ]
                  }
                ]
              },
              {
                "http://hl7.org/fhir/Profile/questionnaire-extensions#flyover": [
                  {
                    "valueString": "Identifies the quantity expected to be consumed in a given day."
                  }
                ],
                "http://www.healthintersections.com.au/fhir/Profile/metadata#type": [
                  {
                    "valueString": "Quantity"
                  }
                ],
                "linkId": "CarePlan.activity.simple.dailyAmount",
                "text": "How much consumed/day?",
                "repeats": true,
                "question": [
                  {
                    "linkId": "CarePlan.activity.simple.dailyAmount.comparator",
                    "text": "comp:",
                    "type": "choice"
                  },
                  {
                    "linkId": "CarePlan.activity.simple.dailyAmount.value",
                    "text": "value:",
                    "type": "decimal"
                  },
                  {
                    "linkId": "CarePlan.activity.simple.dailyAmount.units",
                    "text": "units:",
                    "type": "string"
                  },
                  {
                    "linkId": "CarePlan.activity.simple.dailyAmount.code",
                    "text": "coded units:",
                    "type": "string"
                  },
                  {
                    "linkId": "CarePlan.activity.simple.dailyAmount.system",
                    "text": "units system:",
                    "type": "string"
                  }
                ]
              },
              {
                "http://hl7.org/fhir/Profile/questionnaire-extensions#flyover": [
                  {
                    "valueString": "Identifies the quantity expected to be supplied."
                  }
                ],
                "http://www.healthintersections.com.au/fhir/Profile/metadata#type": [
                  {
                    "valueString": "Quantity"
                  }
                ],
                "linkId": "CarePlan.activity.simple.quantity",
                "text": "How much is administered/supplied/consumed",
                "repeats": true,
                "question": [
                  {
                    "linkId": "CarePlan.activity.simple.quantity.comparator",
                    "text": "comp:",
                    "type": "choice"
                  },
                  {
                    "linkId": "CarePlan.activity.simple.quantity.value",
                    "text": "value:",
                    "type": "decimal"
                  },
                  {
                    "linkId": "CarePlan.activity.simple.quantity.units",
                    "text": "units:",
                    "type": "string"
                  },
                  {
                    "linkId": "CarePlan.activity.simple.quantity.code",
                    "text": "coded units:",
                    "type": "string"
                  },
                  {
                    "linkId": "CarePlan.activity.simple.quantity.system",
                    "text": "units system:",
                    "type": "string"
                  }
                ]
              },
              {
                "http://hl7.org/fhir/Profile/questionnaire-extensions#flyover": [
                  {
                    "valueString": "This provides a textual description of constraints on the activity occurrence, including relation to other activities.  It may also include objectives, pre-conditions and end-conditions.  Finally, it may convey specifics about the activity such as body site, method, route, etc."
                  }
                ],
                "http://www.healthintersections.com.au/fhir/Profile/metadata#type": [
                  {
                    "valueString": "string"
                  }
                ],
                "linkId": "CarePlan.activity.simple.details",
                "repeats": true,
                "question": [
                  {
                    "linkId": "CarePlan.activity.simple.details.value",
                    "text": "Extra info on activity occurrence",
                    "type": "string"
                  }
                ]
              }
            ]
          }
        ]
      },
      {
        "http://hl7.org/fhir/Profile/questionnaire-extensions#flyover": [
          {
            "valueString": "General notes about the care plan not covered elsewhere."
          }
        ],
        "http://www.healthintersections.com.au/fhir/Profile/metadata#type": [
          {
            "valueString": "string"
          }
        ],
        "linkId": "CarePlan.notes",
        "repeats": true,
        "question": [
          {
            "linkId": "CarePlan.notes.value",
            "text": "Comments about the plan",
            "type": "string"
          }
        ]
      }
    ]
  }
}