{
  "resourceType": "Questionnaire",
  "id": "qs1",
  "contained": [
    {
      "resourceType": "ValueSet",
      "id": "vs2",
      "identifier": "urn:uuid:11bed1b7-3059-4079-bcb1-3683fa643761",
      "name": "Type options for ClinicalAssessment.problem",
      "description": "Type options for ClinicalAssessment.problem",
      "status": "active",
      "expansion": {
        "timestamp": "2014-12-12T13:19:21.525+11:00",
        "contains": [
          {
            "system": "http://hl7.org/fhir/resource-types",
            "code": "Condition",
            "display": "Condition"
          },
          {
            "system": "http://hl7.org/fhir/resource-types",
            "code": "AllergyIntolerance",
            "display": "AllergyIntolerance"
          }
        ]
      }
    },
    {
      "resourceType": "ValueSet",
      "id": "vs3",
      "identifier": "urn:uuid:e951b33d-db39-4a8c-bc96-ed208108bdd0",
      "name": "Type options for ClinicalAssessment.investigations.item",
      "description": "Type options for ClinicalAssessment.investigations.item",
      "status": "active",
      "expansion": {
        "timestamp": "2014-12-12T13:19:21.525+11:00",
        "contains": [
          {
            "system": "http://hl7.org/fhir/resource-types",
            "code": "Observation",
            "display": "Observation"
          },
          {
            "system": "http://hl7.org/fhir/resource-types",
            "code": "QuestionnaireAnswers",
            "display": "QuestionnaireAnswers"
          },
          {
            "system": "http://hl7.org/fhir/resource-types",
            "code": "FamilyHistory",
            "display": "FamilyHistory"
          },
          {
            "system": "http://hl7.org/fhir/resource-types",
            "code": "DiagnosticReport",
            "display": "DiagnosticReport"
          }
        ]
      }
    },
    {
      "resourceType": "ValueSet",
      "id": "vs4",
      "identifier": "urn:uuid:82080ffe-0f05-4f15-8718-00e247344b3c",
      "name": "Type options for ClinicalAssessment.action",
      "description": "Type options for ClinicalAssessment.action",
      "status": "active",
      "expansion": {
        "timestamp": "2014-12-12T13:19:21.525+11:00",
        "contains": [
          {
            "system": "http://hl7.org/fhir/resource-types",
            "code": "ReferralRequest",
            "display": "ReferralRequest"
          },
          {
            "system": "http://hl7.org/fhir/resource-types",
            "code": "ProcedureRequest",
            "display": "ProcedureRequest"
          },
          {
            "system": "http://hl7.org/fhir/resource-types",
            "code": "Procedure",
            "display": "Procedure"
          },
          {
            "system": "http://hl7.org/fhir/resource-types",
            "code": "MedicationPrescription",
            "display": "MedicationPrescription"
          },
          {
            "system": "http://hl7.org/fhir/resource-types",
            "code": "DiagnosticOrder",
            "display": "DiagnosticOrder"
          },
          {
            "system": "http://hl7.org/fhir/resource-types",
            "code": "NutritionOrder",
            "display": "NutritionOrder"
          },
          {
            "system": "http://hl7.org/fhir/resource-types",
            "code": "Supply",
            "display": "Supply"
          },
          {
            "system": "http://hl7.org/fhir/resource-types",
            "code": "Appointment",
            "display": "Appointment"
          }
        ]
      }
    }
  ],
  "identifier": [
    {
      "system": "urn:ietf:rfc:3986"
    }
  ],
  "status": "draft",
  "date": "2014-12-12T13:17:44.755+11:00",
  "publisher": "HL7 FHIR Project",
  "group": {
    "http://hl7.org/fhir/Profile/questionnaire-extensions#flyover": [
      {
        "valueString": "A record of a clinical assessment performed to determine what problem(s) may affect the patient and before planning the treatments or management strategies that are best to manage a patient's condition. Assessments are often 1:1 with a clinical consultation / encounter,  but this varies greatly depending on the clinical workflow."
      }
    ],
    "linkId": "ClinicalAssessment",
    "title": "A clinical assessment performed when planning treatments and management strategies for a patient",
    "required": true,
    "group": [
      {
        "http://hl7.org/fhir/Profile/questionnaire-extensions#flyover": [
          {
            "valueString": "The logical id of the resource, as used in the url for the resoure. Once assigned, this value never changes. The only time that a resource does not have an id is when it is being submitted to the server using a create operation. Bundles always have an id, though it is usually a generated UUID."
          }
        ],
        "http://www.healthintersections.com.au/fhir/Profile/metadata#type": [
          {
            "valueString": "string"
          }
        ],
        "linkId": "ClinicalAssessment.id",
        "repeats": true,
        "question": [
          {
            "linkId": "ClinicalAssessment.id.value",
            "text": "Logical id of this artefact",
            "type": "string"
          }
        ]
      },
      {
        "http://hl7.org/fhir/Profile/questionnaire-extensions#flyover": [
          {
            "valueString": "The metadata about the resource. This is content that is maintained by the infrastructure. Changes to the content may not always be associated with version changes to the resource."
          }
        ],
        "linkId": "ClinicalAssessment.meta",
        "title": "Metadata about the resource",
        "group": [
          {
            "http://hl7.org/fhir/Profile/questionnaire-extensions#flyover": [
              {
                "valueString": "unique id for the element within a resource (for internal references)."
              }
            ],
            "http://www.healthintersections.com.au/fhir/Profile/metadata#type": [
              {
                "valueString": "string"
              }
            ],
            "linkId": "ClinicalAssessment.meta.id",
            "repeats": true,
            "question": [
              {
                "linkId": "ClinicalAssessment.meta.id.value",
                "text": "xml:id (or equivalent in JSON)",
                "type": "string"
              }
            ]
          },
          {
            "http://hl7.org/fhir/Profile/questionnaire-extensions#flyover": [
              {
                "valueString": "The version specific identifier, as it appears in the version portion of the url. This values changes when the resource is created, updated, or deleted. The server assigns this value, and ignores what the client specifies, except in the case that the server is imposing version integrity on updates/deletes."
              }
            ],
            "http://www.healthintersections.com.au/fhir/Profile/metadata#type": [
              {
                "valueString": "string"
              }
            ],
            "linkId": "ClinicalAssessment.meta.versionId",
            "repeats": true,
            "question": [
              {
                "linkId": "ClinicalAssessment.meta.versionId.value",
                "text": "Version specific identifier",
                "type": "string"
              }
            ]
          },
          {
            "http://hl7.org/fhir/Profile/questionnaire-extensions#flyover": [
              {
                "valueString": "When the resource last changed - e.g. when the version changed. This value is always populated except when the resource is first being created. The server / resource manager sets this value; what a client provides is irrelevant."
              }
            ],
            "http://www.healthintersections.com.au/fhir/Profile/metadata#type": [
              {
                "valueString": "instant"
              }
            ],
            "linkId": "ClinicalAssessment.meta.lastUpdated",
            "repeats": true,
            "question": [
              {
                "linkId": "ClinicalAssessment.meta.lastUpdated.value",
                "text": "When the resource version last changed",
                "type": "instant"
              }
            ]
          },
          {
            "http://hl7.org/fhir/Profile/questionnaire-extensions#flyover": [
              {
                "valueString": "A list of profiles that this resource claims to conform to. The URL is a reference to Profile.url. It is up to the server and/or other infrastruture of policy to determine whether/how these claims are verified and/or updated over tiem."
              }
            ],
            "http://www.healthintersections.com.au/fhir/Profile/metadata#type": [
              {
                "valueString": "uri"
              }
            ],
            "linkId": "ClinicalAssessment.meta.profile",
            "repeats": true,
            "question": [
              {
                "linkId": "ClinicalAssessment.meta.profile.value",
                "text": "Profiles this resource claims to conform to",
                "type": "string"
              }
            ]
          },
          {
            "http://hl7.org/fhir/Profile/questionnaire-extensions#flyover": [
              {
                "valueString": "Security labels applied to this resource. These tags connect specific resources to the overall security policy and infrastructure. The security labels can be updated without changing the stated version of the resource."
              }
            ],
            "http://www.healthintersections.com.au/fhir/Profile/metadata#type": [
              {
                "valueString": "Coding"
              }
            ],
            "linkId": "ClinicalAssessment.meta.security",
            "repeats": true,
            "question": [
              {
                "linkId": "ClinicalAssessment.meta.security.value",
                "text": "Security Labels applied to this resource",
                "type": "open-choice"
              }
            ]
          },
          {
            "http://hl7.org/fhir/Profile/questionnaire-extensions#flyover": [
              {
                "valueString": "Tags applied to this resource. Tags are intended to to be used to identify and relate resources to process and workflow, and applications are not required to consider the tags when interpreting the meaning of a resource. The tags can be updated without changing the stated version of the resource."
              }
            ],
            "http://www.healthintersections.com.au/fhir/Profile/metadata#type": [
              {
                "valueString": "Coding"
              }
            ],
            "linkId": "ClinicalAssessment.meta.tag",
            "repeats": true,
            "question": [
              {
                "linkId": "ClinicalAssessment.meta.tag.value",
                "text": "Tags applied",
                "type": "open-choice"
              }
            ]
          }
        ]
      },
      {
        "http://hl7.org/fhir/Profile/questionnaire-extensions#flyover": [
          {
            "valueString": "A reference to a set of rules that were followed when the resource was constructed, and which must be understood when processing the content. Asserting this rule set restricts the content to be only understood by a limited set of trading partners. This inherently limits the usefulness of the data in the long term. However the existing health eco-system is highly fractured, and not yet ready to define, collect, and exchange data in a generally computable sense. Wherever possible, implementers and/or specification writers should avoid using this element as much as possible."
          }
        ],
        "http://www.healthintersections.com.au/fhir/Profile/metadata#type": [
          {
            "valueString": "uri"
          }
        ],
        "linkId": "ClinicalAssessment.implicitRules",
        "repeats": true,
        "question": [
          {
            "linkId": "ClinicalAssessment.implicitRules.value",
            "text": "A set of rules under which this content was created",
            "type": "string"
          }
        ]
      },
      {
        "http://hl7.org/fhir/Profile/questionnaire-extensions#flyover": [
          {
            "valueString": "The base language in which the resource is written. Language is provided to support indexing and accessibility (typically, services such as text to speech use the language tag). The html language tag in the narrative applies  to the narrative. The language tag on the resource may be used to specify the language of other presentations generated from the data in the resource\n\nNot all the content has to be in the base language. The Resource.language should not be assumed to apply to the narrative automatically. If a language is specified, it should it also be specified on the div element in the html (see rules in HTML5 for information about the relationship between xml:lang and the html lang attribute)."
          }
        ],
        "http://www.healthintersections.com.au/fhir/Profile/metadata#type": [
          {
            "valueString": "code"
          }
        ],
        "linkId": "ClinicalAssessment.language",
        "repeats": true,
        "question": [
          {
            "linkId": "ClinicalAssessment.language.value",
            "text": "language",
            "type": "choice"
          }
        ]
      },
      {
        "http://hl7.org/fhir/Profile/questionnaire-extensions#flyover": [
          {
            "valueString": "A human-readable narrative that contains a summary of the resource, and may be used to represent the content of the resource to a human. The narrative need not encode all the structured data, but is required to contain sufficient detail to make it \"clinically safe\" for a human to just read the narrative. Resource definitions may define what content should be represented in the narrative to ensure clinical safety. Contained resources do not have narrative. Resources that are not contained SHOULD have a narrative."
          }
        ],
        "linkId": "ClinicalAssessment.text",
        "text": "Text summary of the resource, for human interpretation",
        "repeats": true
      },
      {
        "http://hl7.org/fhir/Profile/questionnaire-extensions#flyover": [
          {
            "valueString": "These resources do not have an independent existence apart from the resource that contains them - they cannot be identified independently, and nor can they have their own independent transaction scope. This should never be done when the content can be identified properly, as once identification is lost, it is extremely difficult (and context dependent) to restore it again."
          }
        ],
        "linkId": "ClinicalAssessment.contained",
        "text": "Contained, inline Resources",
        "repeats": true
      },
      {
        "http://hl7.org/fhir/Profile/questionnaire-extensions#flyover": [
          {
            "valueString": "The patient being asssesed."
          }
        ],
        "http://www.healthintersections.com.au/fhir/Profile/metadata#type": [
          {
            "valueString": "Reference"
          }
        ],
        "linkId": "ClinicalAssessment.patient",
        "required": true,
        "repeats": true,
        "question": [
          {
            "http://www.healthintersections.com.au/fhir/Profile/metadata#reference": [
              {
                "valueString": "/Patient?subject=$subj&patient=$subj&encounter=$encounter"
              }
            ],
            "linkId": "ClinicalAssessment.patient.value",
            "text": "The patient being asssesed",
            "type": "reference"
          }
        ]
      },
      {
        "http://hl7.org/fhir/Profile/questionnaire-extensions#flyover": [
          {
            "valueString": "The clinicial performing the assessment."
          }
        ],
        "http://www.healthintersections.com.au/fhir/Profile/metadata#type": [
          {
            "valueString": "Reference"
          }
        ],
        "linkId": "ClinicalAssessment.assessor",
        "required": true,
        "repeats": true,
        "question": [
          {
            "http://www.healthintersections.com.au/fhir/Profile/metadata#reference": [
              {
                "valueString": "/Practitioner?subject=$subj&patient=$subj&encounter=$encounter"
              }
            ],
            "linkId": "ClinicalAssessment.assessor.value",
            "text": "The clinicial performing the assessment",
            "type": "reference"
          }
        ]
      },
      {
        "http://hl7.org/fhir/Profile/questionnaire-extensions#flyover": [
          {
            "valueString": "The point in time at which the assessment was concluded (not when it was recorded). This SHOULD be accurate to at least the minute, though some assessments only have a known date."
          }
        ],
        "http://www.healthintersections.com.au/fhir/Profile/metadata#type": [
          {
            "valueString": "datetime"
          }
        ],
        "linkId": "ClinicalAssessment.date",
        "required": true,
        "repeats": true,
        "question": [
          {
            "linkId": "ClinicalAssessment.date.value",
            "text": "When the assessment occurred",
            "type": "dateTime"
          }
        ]
      },
      {
        "http://hl7.org/fhir/Profile/questionnaire-extensions#flyover": [
          {
            "valueString": "A summary of the context and/or cause of the assessment - why / where was it peformed, and what patient events/sstatus prompted it."
          }
        ],
        "http://www.healthintersections.com.au/fhir/Profile/metadata#type": [
          {
            "valueString": "string"
          }
        ],
        "linkId": "ClinicalAssessment.description",
        "repeats": true,
        "question": [
          {
            "linkId": "ClinicalAssessment.description.value",
            "text": "Why/how the assessment was performed",
            "type": "string"
          }
        ]
      },
      {
        "http://hl7.org/fhir/Profile/questionnaire-extensions#flyover": [
          {
            "valueString": "A reference to the last assesment that was conducted bon this patient. Assessments are often/usually ongoing in nature; a care provider (practitioner or team) will make new assessments on an ongoing basis as new data arises or the patient's conditions changes. It is always likely that multiple previous assessments exist for a patient. The point of quoting a previous assessment is that this assessment is relative to it (see resolved)."
          }
        ],
        "http://www.healthintersections.com.au/fhir/Profile/metadata#type": [
          {
            "valueString": "Reference"
          }
        ],
        "linkId": "ClinicalAssessment.previous",
        "repeats": true,
        "question": [
          {
            "http://www.healthintersections.com.au/fhir/Profile/metadata#reference": [
              {
                "valueString": "/ClinicalAssessment?subject=$subj&patient=$subj&encounter=$encounter"
              }
            ],
            "linkId": "ClinicalAssessment.previous.value",
            "text": "Reference to last assessment",
            "type": "reference"
          }
        ]
      },
      {
        "http://hl7.org/fhir/Profile/questionnaire-extensions#flyover": [
          {
            "valueString": "This a list of the general problems/conditions for a patient. e.g. The patient is a pregnant, and cardiac congestive failure, ‎Adenocarcinoma, and is allergic to penicillin."
          }
        ],
        "linkId": "ClinicalAssessment.problem",
        "text": "General assessment of patient state",
        "repeats": true,
        "question": [
          {
            "linkId": "ClinicalAssessment.problem._type",
            "text": "type",
            "type": "choice",
            "options": {
              "reference": "#vs2"
            },
            "group": [
              {
                "http://www.healthintersections.com.au/fhir/Profile/metadata#type": [
                  {
                    "valueString": "Reference"
                  }
                ],
                "linkId": "ClinicalAssessment.problem._Condition",
                "question": [
                  {
                    "http://www.healthintersections.com.au/fhir/Profile/metadata#reference": [
                      {
                        "valueString": "/Condition?subject=$subj&patient=$subj&encounter=$encounter"
                      }
                    ],
                    "linkId": "ClinicalAssessment.problem._Condition.value",
                    "text": "Condition",
                    "type": "reference"
                  }
                ]
              },
              {
                "http://www.healthintersections.com.au/fhir/Profile/metadata#type": [
                  {
                    "valueString": "Reference"
                  }
                ],
                "linkId": "ClinicalAssessment.problem._AllergyIntolerance",
                "question": [
                  {
                    "http://www.healthintersections.com.au/fhir/Profile/metadata#reference": [
                      {
                        "valueString": "/AllergyIntolerance?subject=$subj&patient=$subj&encounter=$encounter"
                      }
                    ],
                    "linkId": "ClinicalAssessment.problem._AllergyIntolerance.value",
                    "text": "AllergyIntolerance",
                    "type": "reference"
                  }
                ]
              }
            ]
          }
        ]
      },
      {
        "http://hl7.org/fhir/Profile/questionnaire-extensions#flyover": [
          {
            "valueString": "A reference to a specific care plan that prompted this assessment. The care plan provides further context for the assessment."
          }
        ],
        "http://www.healthintersections.com.au/fhir/Profile/metadata#type": [
          {
            "valueString": "Reference"
          }
        ],
        "linkId": "ClinicalAssessment.careplan",
        "repeats": true,
        "question": [
          {
            "http://www.healthintersections.com.au/fhir/Profile/metadata#reference": [
              {
                "valueString": "/CarePlan?subject=$subj&patient=$subj&encounter=$encounter"
              }
            ],
            "linkId": "ClinicalAssessment.careplan.value",
            "text": "A specific careplan that prompted this assessment",
            "type": "reference"
          }
        ]
      },
      {
        "http://hl7.org/fhir/Profile/questionnaire-extensions#flyover": [
          {
            "valueString": "A reference to a specific care plan that prompted this assessment. The referral request may provide further context for the assessment."
          }
        ],
        "http://www.healthintersections.com.au/fhir/Profile/metadata#type": [
          {
            "valueString": "Reference"
          }
        ],
        "linkId": "ClinicalAssessment.referral",
        "repeats": true,
        "question": [
          {
            "http://www.healthintersections.com.au/fhir/Profile/metadata#reference": [
              {
                "valueString": "/ReferralRequest?subject=$subj&patient=$subj&encounter=$encounter"
              }
            ],
            "linkId": "ClinicalAssessment.referral.value",
            "text": "A specific referral that lead to this assessment",
            "type": "reference"
          }
        ]
      },
      {
        "http://hl7.org/fhir/Profile/questionnaire-extensions#flyover": [
          {
            "valueString": "One or more sets of investigations (signs, symptions, etc). The actual grouping of investigations vary greatly depending on the type and context of the assessment. These investigations may include data generated during the assessment process, or data previously generated and recorded that is pertinent to the outcomes."
          }
        ],
        "linkId": "ClinicalAssessment.investigations",
        "title": "One or more sets of investigations (signs, symptions, etc)",
        "repeats": true,
        "group": [
          {
            "http://hl7.org/fhir/Profile/questionnaire-extensions#flyover": [
              {
                "valueString": "unique id for the element within a resource (for internal references)."
              }
            ],
            "http://www.healthintersections.com.au/fhir/Profile/metadata#type": [
              {
                "valueString": "string"
              }
            ],
            "linkId": "ClinicalAssessment.investigations.id",
            "repeats": true,
            "question": [
              {
                "linkId": "ClinicalAssessment.investigations.id.value",
                "text": "xml:id (or equivalent in JSON)",
                "type": "string"
              }
            ]
          },
          {
            "http://hl7.org/fhir/Profile/questionnaire-extensions#flyover": [
              {
                "valueString": "A name/code for the group (\"set\") of investigations. Typically, this will be something like \"signs\", \"symptoms\", \"clinical\", \"diagnostic\", but the list is not constrained, and others such groups such as (exposure|family|travel|nutitirional) history may be used."
              }
            ],
            "http://www.healthintersections.com.au/fhir/Profile/metadata#type": [
              {
                "valueString": "CodeableConcept"
              }
            ],
            "linkId": "ClinicalAssessment.investigations.code",
            "text": "A name/code for the set",
            "required": true,
            "repeats": true,
            "question": [
              {
                "linkId": "ClinicalAssessment.investigations.code.coding",
                "text": "code:",
                "type": "open-choice"
              },
              {
                "linkId": "ClinicalAssessment.investigations.code.text",
                "text": "text:",
                "type": "string"
              }
            ]
          },
          {
            "http://hl7.org/fhir/Profile/questionnaire-extensions#flyover": [
              {
                "valueString": "A record of a specific investigation that was undertaken. Most investigations are observations of one kind of or another but some other specific types of data collection resources can also be used."
              }
            ],
            "linkId": "ClinicalAssessment.investigations.item",
            "text": "Record of a specific investigation",
            "repeats": true,
            "question": [
              {
                "linkId": "ClinicalAssessment.investigations.item._type",
                "text": "type",
                "type": "choice",
                "options": {
                  "reference": "#vs3"
                },
                "group": [
                  {
                    "http://www.healthintersections.com.au/fhir/Profile/metadata#type": [
                      {
                        "valueString": "Reference"
                      }
                    ],
                    "linkId": "ClinicalAssessment.investigations.item._Observation",
                    "question": [
                      {
                        "http://www.healthintersections.com.au/fhir/Profile/metadata#reference": [
                          {
                            "valueString": "/Observation?subject=$subj&patient=$subj&encounter=$encounter"
                          }
                        ],
                        "linkId": "ClinicalAssessment.investigations.item._Observation.value",
                        "text": "Observation",
                        "type": "reference"
                      }
                    ]
                  },
                  {
                    "http://www.healthintersections.com.au/fhir/Profile/metadata#type": [
                      {
                        "valueString": "Reference"
                      }
                    ],
                    "linkId": "ClinicalAssessment.investigations.item._QuestionnaireAnswers",
                    "question": [
                      {
                        "http://www.healthintersections.com.au/fhir/Profile/metadata#reference": [
                          {
                            "valueString": "/QuestionnaireAnswers?subject=$subj&patient=$subj&encounter=$encounter"
                          }
                        ],
                        "linkId": "ClinicalAssessment.investigations.item._QuestionnaireAnswers.value",
                        "text": "QuestionnaireAnswers",
                        "type": "reference"
                      }
                    ]
                  },
                  {
                    "http://www.healthintersections.com.au/fhir/Profile/metadata#type": [
                      {
                        "valueString": "Reference"
                      }
                    ],
                    "linkId": "ClinicalAssessment.investigations.item._FamilyHistory",
                    "question": [
                      {
                        "http://www.healthintersections.com.au/fhir/Profile/metadata#reference": [
                          {
                            "valueString": "/FamilyHistory?subject=$subj&patient=$subj&encounter=$encounter"
                          }
                        ],
                        "linkId": "ClinicalAssessment.investigations.item._FamilyHistory.value",
                        "text": "FamilyHistory",
                        "type": "reference"
                      }
                    ]
                  },
                  {
                    "http://www.healthintersections.com.au/fhir/Profile/metadata#type": [
                      {
                        "valueString": "Reference"
                      }
                    ],
                    "linkId": "ClinicalAssessment.investigations.item._DiagnosticReport",
                    "question": [
                      {
                        "http://www.healthintersections.com.au/fhir/Profile/metadata#reference": [
                          {
                            "valueString": "/DiagnosticReport?subject=$subj&patient=$subj&encounter=$encounter"
                          }
                        ],
                        "linkId": "ClinicalAssessment.investigations.item._DiagnosticReport.value",
                        "text": "DiagnosticReport",
                        "type": "reference"
                      }
                    ]
                  }
                ]
              }
            ]
          }
        ]
      },
      {
        "http://hl7.org/fhir/Profile/questionnaire-extensions#flyover": [
          {
            "valueString": "Reference to a specific published clinical protocol that was followed during this assessment, and/or that provides evidence in support of the diagnosis."
          }
        ],
        "http://www.healthintersections.com.au/fhir/Profile/metadata#type": [
          {
            "valueString": "uri"
          }
        ],
        "linkId": "ClinicalAssessment.protocol",
        "repeats": true,
        "question": [
          {
            "linkId": "ClinicalAssessment.protocol.value",
            "text": "Clinical Protocol followed",
            "type": "string"
          }
        ]
      },
      {
        "http://hl7.org/fhir/Profile/questionnaire-extensions#flyover": [
          {
            "valueString": "A text summary of the investigations and the diagnosis."
          }
        ],
        "http://www.healthintersections.com.au/fhir/Profile/metadata#type": [
          {
            "valueString": "string"
          }
        ],
        "linkId": "ClinicalAssessment.summary",
        "repeats": true,
        "question": [
          {
            "linkId": "ClinicalAssessment.summary.value",
            "text": "Summary of the assessment",
            "type": "string"
          }
        ]
      },
      {
        "http://hl7.org/fhir/Profile/questionnaire-extensions#flyover": [
          {
            "valueString": "An specific diagnosis that was considered likely or relevant to ongoing treatment."
          }
        ],
        "linkId": "ClinicalAssessment.diagnosis",
        "title": "Possible or likely diagnosis",
        "repeats": true,
        "group": [
          {
            "http://hl7.org/fhir/Profile/questionnaire-extensions#flyover": [
              {
                "valueString": "unique id for the element within a resource (for internal references)."
              }
            ],
            "http://www.healthintersections.com.au/fhir/Profile/metadata#type": [
              {
                "valueString": "string"
              }
            ],
            "linkId": "ClinicalAssessment.diagnosis.id",
            "repeats": true,
            "question": [
              {
                "linkId": "ClinicalAssessment.diagnosis.id.value",
                "text": "xml:id (or equivalent in JSON)",
                "type": "string"
              }
            ]
          },
          {
            "http://hl7.org/fhir/Profile/questionnaire-extensions#flyover": [
              {
                "valueString": "Specific text of code for diagnosis."
              }
            ],
            "http://www.healthintersections.com.au/fhir/Profile/metadata#type": [
              {
                "valueString": "CodeableConcept"
              }
            ],
            "linkId": "ClinicalAssessment.diagnosis.item",
            "text": "Specific text or code for diagnosis",
            "required": true,
            "repeats": true,
            "question": [
              {
                "linkId": "ClinicalAssessment.diagnosis.item.coding",
                "text": "code:",
                "type": "open-choice"
              },
              {
                "linkId": "ClinicalAssessment.diagnosis.item.text",
                "text": "text:",
                "type": "string"
              }
            ]
          },
          {
            "http://hl7.org/fhir/Profile/questionnaire-extensions#flyover": [
              {
                "valueString": "Which investigations support diagnosis."
              }
            ],
            "http://www.healthintersections.com.au/fhir/Profile/metadata#type": [
              {
                "valueString": "string"
              }
            ],
            "linkId": "ClinicalAssessment.diagnosis.cause",
            "repeats": true,
            "question": [
              {
                "linkId": "ClinicalAssessment.diagnosis.cause.value",
                "text": "Which investigations support diagnosis",
                "type": "string"
              }
            ]
          }
        ]
      },
      {
        "http://hl7.org/fhir/Profile/questionnaire-extensions#flyover": [
          {
            "valueString": "Diagnoses/conditions resolved since the last assessment."
          }
        ],
        "http://www.healthintersections.com.au/fhir/Profile/metadata#type": [
          {
            "valueString": "CodeableConcept"
          }
        ],
        "linkId": "ClinicalAssessment.resolved",
        "text": "Diagnosies/conditions resolved since previous assessment",
        "repeats": true,
        "question": [
          {
            "linkId": "ClinicalAssessment.resolved.coding",
            "text": "code:",
            "type": "open-choice"
          },
          {
            "linkId": "ClinicalAssessment.resolved.text",
            "text": "text:",
            "type": "string"
          }
        ]
      },
      {
        "http://hl7.org/fhir/Profile/questionnaire-extensions#flyover": [
          {
            "valueString": "Diagnosis considered not possible."
          }
        ],
        "linkId": "ClinicalAssessment.ruledOut",
        "title": "Diagnosis considered not possible",
        "repeats": true,
        "group": [
          {
            "http://hl7.org/fhir/Profile/questionnaire-extensions#flyover": [
              {
                "valueString": "unique id for the element within a resource (for internal references)."
              }
            ],
            "http://www.healthintersections.com.au/fhir/Profile/metadata#type": [
              {
                "valueString": "string"
              }
            ],
            "linkId": "ClinicalAssessment.ruledOut.id",
            "repeats": true,
            "question": [
              {
                "linkId": "ClinicalAssessment.ruledOut.id.value",
                "text": "xml:id (or equivalent in JSON)",
                "type": "string"
              }
            ]
          },
          {
            "http://hl7.org/fhir/Profile/questionnaire-extensions#flyover": [
              {
                "valueString": "Specific text of code for diagnosis."
              }
            ],
            "http://www.healthintersections.com.au/fhir/Profile/metadata#type": [
              {
                "valueString": "CodeableConcept"
              }
            ],
            "linkId": "ClinicalAssessment.ruledOut.item",
            "text": "Specific text of code for diagnosis",
            "required": true,
            "repeats": true,
            "question": [
              {
                "linkId": "ClinicalAssessment.ruledOut.item.coding",
                "text": "code:",
                "type": "open-choice"
              },
              {
                "linkId": "ClinicalAssessment.ruledOut.item.text",
                "text": "text:",
                "type": "string"
              }
            ]
          },
          {
            "http://hl7.org/fhir/Profile/questionnaire-extensions#flyover": [
              {
                "valueString": "Grounds for elimination."
              }
            ],
            "http://www.healthintersections.com.au/fhir/Profile/metadata#type": [
              {
                "valueString": "string"
              }
            ],
            "linkId": "ClinicalAssessment.ruledOut.reason",
            "repeats": true,
            "question": [
              {
                "linkId": "ClinicalAssessment.ruledOut.reason.value",
                "text": "Grounds for elimination",
                "type": "string"
              }
            ]
          }
        ]
      },
      {
        "http://hl7.org/fhir/Profile/questionnaire-extensions#flyover": [
          {
            "valueString": "Estimate of likely outcome."
          }
        ],
        "http://www.healthintersections.com.au/fhir/Profile/metadata#type": [
          {
            "valueString": "string"
          }
        ],
        "linkId": "ClinicalAssessment.prognosis",
        "repeats": true,
        "question": [
          {
            "linkId": "ClinicalAssessment.prognosis.value",
            "text": "Estimate of likely outcome",
            "type": "string"
          }
        ]
      },
      {
        "http://hl7.org/fhir/Profile/questionnaire-extensions#flyover": [
          {
            "valueString": "Plan of action after assessment."
          }
        ],
        "http://www.healthintersections.com.au/fhir/Profile/metadata#type": [
          {
            "valueString": "Reference"
          }
        ],
        "linkId": "ClinicalAssessment.plan",
        "repeats": true,
        "question": [
          {
            "http://www.healthintersections.com.au/fhir/Profile/metadata#reference": [
              {
                "valueString": "/CarePlan?subject=$subj&patient=$subj&encounter=$encounter"
              }
            ],
            "linkId": "ClinicalAssessment.plan.value",
            "text": "Plan of action after assessment",
            "type": "reference"
          }
        ]
      },
      {
        "http://hl7.org/fhir/Profile/questionnaire-extensions#flyover": [
          {
            "valueString": "Actions taken during assessment."
          }
        ],
        "linkId": "ClinicalAssessment.action",
        "text": "Actions taken during assessment",
        "repeats": true,
        "question": [
          {
            "linkId": "ClinicalAssessment.action._type",
            "text": "type",
            "type": "choice",
            "options": {
              "reference": "#vs4"
            },
            "group": [
              {
                "http://www.healthintersections.com.au/fhir/Profile/metadata#type": [
                  {
                    "valueString": "Reference"
                  }
                ],
                "linkId": "ClinicalAssessment.action._ReferralRequest",
                "question": [
                  {
                    "http://www.healthintersections.com.au/fhir/Profile/metadata#reference": [
                      {
                        "valueString": "/ReferralRequest?subject=$subj&patient=$subj&encounter=$encounter"
                      }
                    ],
                    "linkId": "ClinicalAssessment.action._ReferralRequest.value",
                    "text": "ReferralRequest",
                    "type": "reference"
                  }
                ]
              },
              {
                "http://www.healthintersections.com.au/fhir/Profile/metadata#type": [
                  {
                    "valueString": "Reference"
                  }
                ],
                "linkId": "ClinicalAssessment.action._ProcedureRequest",
                "question": [
                  {
                    "http://www.healthintersections.com.au/fhir/Profile/metadata#reference": [
                      {
                        "valueString": "/ProcedureRequest?subject=$subj&patient=$subj&encounter=$encounter"
                      }
                    ],
                    "linkId": "ClinicalAssessment.action._ProcedureRequest.value",
                    "text": "ProcedureRequest",
                    "type": "reference"
                  }
                ]
              },
              {
                "http://www.healthintersections.com.au/fhir/Profile/metadata#type": [
                  {
                    "valueString": "Reference"
                  }
                ],
                "linkId": "ClinicalAssessment.action._Procedure",
                "question": [
                  {
                    "http://www.healthintersections.com.au/fhir/Profile/metadata#reference": [
                      {
                        "valueString": "/Procedure?subject=$subj&patient=$subj&encounter=$encounter"
                      }
                    ],
                    "linkId": "ClinicalAssessment.action._Procedure.value",
                    "text": "Procedure",
                    "type": "reference"
                  }
                ]
              },
              {
                "http://www.healthintersections.com.au/fhir/Profile/metadata#type": [
                  {
                    "valueString": "Reference"
                  }
                ],
                "linkId": "ClinicalAssessment.action._MedicationPrescription",
                "question": [
                  {
                    "http://www.healthintersections.com.au/fhir/Profile/metadata#reference": [
                      {
                        "valueString": "/MedicationPrescription?subject=$subj&patient=$subj&encounter=$encounter"
                      }
                    ],
                    "linkId": "ClinicalAssessment.action._MedicationPrescription.value",
                    "text": "MedicationPrescription",
                    "type": "reference"
                  }
                ]
              },
              {
                "http://www.healthintersections.com.au/fhir/Profile/metadata#type": [
                  {
                    "valueString": "Reference"
                  }
                ],
                "linkId": "ClinicalAssessment.action._DiagnosticOrder",
                "question": [
                  {
                    "http://www.healthintersections.com.au/fhir/Profile/metadata#reference": [
                      {
                        "valueString": "/DiagnosticOrder?subject=$subj&patient=$subj&encounter=$encounter"
                      }
                    ],
                    "linkId": "ClinicalAssessment.action._DiagnosticOrder.value",
                    "text": "DiagnosticOrder",
                    "type": "reference"
                  }
                ]
              },
              {
                "http://www.healthintersections.com.au/fhir/Profile/metadata#type": [
                  {
                    "valueString": "Reference"
                  }
                ],
                "linkId": "ClinicalAssessment.action._NutritionOrder",
                "question": [
                  {
                    "http://www.healthintersections.com.au/fhir/Profile/metadata#reference": [
                      {
                        "valueString": "/NutritionOrder?subject=$subj&patient=$subj&encounter=$encounter"
                      }
                    ],
                    "linkId": "ClinicalAssessment.action._NutritionOrder.value",
                    "text": "NutritionOrder",
                    "type": "reference"
                  }
                ]
              },
              {
                "http://www.healthintersections.com.au/fhir/Profile/metadata#type": [
                  {
                    "valueString": "Reference"
                  }
                ],
                "linkId": "ClinicalAssessment.action._Supply",
                "question": [
                  {
                    "http://www.healthintersections.com.au/fhir/Profile/metadata#reference": [
                      {
                        "valueString": "/Supply?subject=$subj&patient=$subj&encounter=$encounter"
                      }
                    ],
                    "linkId": "ClinicalAssessment.action._Supply.value",
                    "text": "Supply",
                    "type": "reference"
                  }
                ]
              },
              {
                "http://www.healthintersections.com.au/fhir/Profile/metadata#type": [
                  {
                    "valueString": "Reference"
                  }
                ],
                "linkId": "ClinicalAssessment.action._Appointment",
                "question": [
                  {
                    "http://www.healthintersections.com.au/fhir/Profile/metadata#reference": [
                      {
                        "valueString": "/Appointment?subject=$subj&patient=$subj&encounter=$encounter"
                      }
                    ],
                    "linkId": "ClinicalAssessment.action._Appointment.value",
                    "text": "Appointment",
                    "type": "reference"
                  }
                ]
              }
            ]
          }
        ]
      }
    ]
  }
}