{
  "resourceType": "Questionnaire",
  "id": "qs1",
  "contained": [
    {
      "resourceType": "ValueSet",
      "id": "vs2",
      "identifier": "urn:uuid:a37c73c2-a6ba-4e88-8695-bc966d6e6c4b",
      "name": "Type options for DiagnosticOrder.subject",
      "description": "Type options for DiagnosticOrder.subject",
      "status": "active",
      "expansion": {
        "timestamp": "2014-12-12T13:20:02.203+11:00",
        "contains": [
          {
            "system": "http://hl7.org/fhir/resource-types",
            "code": "Patient",
            "display": "Patient"
          },
          {
            "system": "http://hl7.org/fhir/resource-types",
            "code": "Group",
            "display": "Group"
          },
          {
            "system": "http://hl7.org/fhir/resource-types",
            "code": "Location",
            "display": "Location"
          },
          {
            "system": "http://hl7.org/fhir/resource-types",
            "code": "Device",
            "display": "Device"
          }
        ]
      }
    },
    {
      "resourceType": "ValueSet",
      "id": "vs3",
      "identifier": "urn:uuid:bfdf7773-50e8-48b9-90c1-93539ce697c9",
      "name": "Type options for DiagnosticOrder.supportingInformation",
      "description": "Type options for DiagnosticOrder.supportingInformation",
      "status": "active",
      "expansion": {
        "timestamp": "2014-12-12T13:20:02.203+11:00",
        "contains": [
          {
            "system": "http://hl7.org/fhir/resource-types",
            "code": "Observation",
            "display": "Observation"
          },
          {
            "system": "http://hl7.org/fhir/resource-types",
            "code": "Condition",
            "display": "Condition"
          }
        ]
      }
    },
    {
      "resourceType": "ValueSet",
      "id": "vs4",
      "identifier": "urn:uuid:026b0b9b-12ed-4f7a-9d27-96470b548da0",
      "name": "Type options for DiagnosticOrder.event.actor",
      "description": "Type options for DiagnosticOrder.event.actor",
      "status": "active",
      "expansion": {
        "timestamp": "2014-12-12T13:20:02.204+11:00",
        "contains": [
          {
            "system": "http://hl7.org/fhir/resource-types",
            "code": "Practitioner",
            "display": "Practitioner"
          },
          {
            "system": "http://hl7.org/fhir/resource-types",
            "code": "Device",
            "display": "Device"
          }
        ]
      }
    }
  ],
  "identifier": [
    {
      "system": "urn:ietf:rfc:3986"
    }
  ],
  "status": "draft",
  "date": "2014-12-12T13:17:44.755+11:00",
  "publisher": "HL7 FHIR Project (Orders and Observations)",
  "group": {
    "http://hl7.org/fhir/Profile/questionnaire-extensions#flyover": [
      {
        "valueString": "A request for a diagnostic investigation service to be performed."
      }
    ],
    "linkId": "DiagnosticOrder",
    "title": "A request for a diagnostic service",
    "required": true,
    "group": [
      {
        "http://hl7.org/fhir/Profile/questionnaire-extensions#flyover": [
          {
            "valueString": "The logical id of the resource, as used in the url for the resoure. Once assigned, this value never changes. The only time that a resource does not have an id is when it is being submitted to the server using a create operation. Bundles always have an id, though it is usually a generated UUID."
          }
        ],
        "http://www.healthintersections.com.au/fhir/Profile/metadata#type": [
          {
            "valueString": "string"
          }
        ],
        "linkId": "DiagnosticOrder.id",
        "repeats": true,
        "question": [
          {
            "linkId": "DiagnosticOrder.id.value",
            "text": "Logical id of this artefact",
            "type": "string"
          }
        ]
      },
      {
        "http://hl7.org/fhir/Profile/questionnaire-extensions#flyover": [
          {
            "valueString": "The metadata about the resource. This is content that is maintained by the infrastructure. Changes to the content may not always be associated with version changes to the resource."
          }
        ],
        "linkId": "DiagnosticOrder.meta",
        "title": "Metadata about the resource",
        "group": [
          {
            "http://hl7.org/fhir/Profile/questionnaire-extensions#flyover": [
              {
                "valueString": "unique id for the element within a resource (for internal references)."
              }
            ],
            "http://www.healthintersections.com.au/fhir/Profile/metadata#type": [
              {
                "valueString": "string"
              }
            ],
            "linkId": "DiagnosticOrder.meta.id",
            "repeats": true,
            "question": [
              {
                "linkId": "DiagnosticOrder.meta.id.value",
                "text": "xml:id (or equivalent in JSON)",
                "type": "string"
              }
            ]
          },
          {
            "http://hl7.org/fhir/Profile/questionnaire-extensions#flyover": [
              {
                "valueString": "The version specific identifier, as it appears in the version portion of the url. This values changes when the resource is created, updated, or deleted. The server assigns this value, and ignores what the client specifies, except in the case that the server is imposing version integrity on updates/deletes."
              }
            ],
            "http://www.healthintersections.com.au/fhir/Profile/metadata#type": [
              {
                "valueString": "string"
              }
            ],
            "linkId": "DiagnosticOrder.meta.versionId",
            "repeats": true,
            "question": [
              {
                "linkId": "DiagnosticOrder.meta.versionId.value",
                "text": "Version specific identifier",
                "type": "string"
              }
            ]
          },
          {
            "http://hl7.org/fhir/Profile/questionnaire-extensions#flyover": [
              {
                "valueString": "When the resource last changed - e.g. when the version changed. This value is always populated except when the resource is first being created. The server / resource manager sets this value; what a client provides is irrelevant."
              }
            ],
            "http://www.healthintersections.com.au/fhir/Profile/metadata#type": [
              {
                "valueString": "instant"
              }
            ],
            "linkId": "DiagnosticOrder.meta.lastUpdated",
            "repeats": true,
            "question": [
              {
                "linkId": "DiagnosticOrder.meta.lastUpdated.value",
                "text": "When the resource version last changed",
                "type": "instant"
              }
            ]
          },
          {
            "http://hl7.org/fhir/Profile/questionnaire-extensions#flyover": [
              {
                "valueString": "A list of profiles that this resource claims to conform to. The URL is a reference to Profile.url. It is up to the server and/or other infrastruture of policy to determine whether/how these claims are verified and/or updated over tiem."
              }
            ],
            "http://www.healthintersections.com.au/fhir/Profile/metadata#type": [
              {
                "valueString": "uri"
              }
            ],
            "linkId": "DiagnosticOrder.meta.profile",
            "repeats": true,
            "question": [
              {
                "linkId": "DiagnosticOrder.meta.profile.value",
                "text": "Profiles this resource claims to conform to",
                "type": "string"
              }
            ]
          },
          {
            "http://hl7.org/fhir/Profile/questionnaire-extensions#flyover": [
              {
                "valueString": "Security labels applied to this resource. These tags connect specific resources to the overall security policy and infrastructure. The security labels can be updated without changing the stated version of the resource."
              }
            ],
            "http://www.healthintersections.com.au/fhir/Profile/metadata#type": [
              {
                "valueString": "Coding"
              }
            ],
            "linkId": "DiagnosticOrder.meta.security",
            "repeats": true,
            "question": [
              {
                "linkId": "DiagnosticOrder.meta.security.value",
                "text": "Security Labels applied to this resource",
                "type": "open-choice"
              }
            ]
          },
          {
            "http://hl7.org/fhir/Profile/questionnaire-extensions#flyover": [
              {
                "valueString": "Tags applied to this resource. Tags are intended to to be used to identify and relate resources to process and workflow, and applications are not required to consider the tags when interpreting the meaning of a resource. The tags can be updated without changing the stated version of the resource."
              }
            ],
            "http://www.healthintersections.com.au/fhir/Profile/metadata#type": [
              {
                "valueString": "Coding"
              }
            ],
            "linkId": "DiagnosticOrder.meta.tag",
            "repeats": true,
            "question": [
              {
                "linkId": "DiagnosticOrder.meta.tag.value",
                "text": "Tags applied",
                "type": "open-choice"
              }
            ]
          }
        ]
      },
      {
        "http://hl7.org/fhir/Profile/questionnaire-extensions#flyover": [
          {
            "valueString": "A reference to a set of rules that were followed when the resource was constructed, and which must be understood when processing the content. Asserting this rule set restricts the content to be only understood by a limited set of trading partners. This inherently limits the usefulness of the data in the long term. However the existing health eco-system is highly fractured, and not yet ready to define, collect, and exchange data in a generally computable sense. Wherever possible, implementers and/or specification writers should avoid using this element as much as possible."
          }
        ],
        "http://www.healthintersections.com.au/fhir/Profile/metadata#type": [
          {
            "valueString": "uri"
          }
        ],
        "linkId": "DiagnosticOrder.implicitRules",
        "repeats": true,
        "question": [
          {
            "linkId": "DiagnosticOrder.implicitRules.value",
            "text": "A set of rules under which this content was created",
            "type": "string"
          }
        ]
      },
      {
        "http://hl7.org/fhir/Profile/questionnaire-extensions#flyover": [
          {
            "valueString": "The base language in which the resource is written. Language is provided to support indexing and accessibility (typically, services such as text to speech use the language tag). The html language tag in the narrative applies  to the narrative. The language tag on the resource may be used to specify the language of other presentations generated from the data in the resource\n\nNot all the content has to be in the base language. The Resource.language should not be assumed to apply to the narrative automatically. If a language is specified, it should it also be specified on the div element in the html (see rules in HTML5 for information about the relationship between xml:lang and the html lang attribute)."
          }
        ],
        "http://www.healthintersections.com.au/fhir/Profile/metadata#type": [
          {
            "valueString": "code"
          }
        ],
        "linkId": "DiagnosticOrder.language",
        "repeats": true,
        "question": [
          {
            "linkId": "DiagnosticOrder.language.value",
            "text": "language",
            "type": "choice"
          }
        ]
      },
      {
        "http://hl7.org/fhir/Profile/questionnaire-extensions#flyover": [
          {
            "valueString": "A human-readable narrative that contains a summary of the resource, and may be used to represent the content of the resource to a human. The narrative need not encode all the structured data, but is required to contain sufficient detail to make it \"clinically safe\" for a human to just read the narrative. Resource definitions may define what content should be represented in the narrative to ensure clinical safety. Contained resources do not have narrative. Resources that are not contained SHOULD have a narrative."
          }
        ],
        "linkId": "DiagnosticOrder.text",
        "text": "Text summary of the resource, for human interpretation",
        "repeats": true
      },
      {
        "http://hl7.org/fhir/Profile/questionnaire-extensions#flyover": [
          {
            "valueString": "These resources do not have an independent existence apart from the resource that contains them - they cannot be identified independently, and nor can they have their own independent transaction scope. This should never be done when the content can be identified properly, as once identification is lost, it is extremely difficult (and context dependent) to restore it again."
          }
        ],
        "linkId": "DiagnosticOrder.contained",
        "text": "Contained, inline Resources",
        "repeats": true
      },
      {
        "http://hl7.org/fhir/Profile/questionnaire-extensions#flyover": [
          {
            "valueString": "Who or what the investigation is to be performed on. This is usually a human patient, but diagnostic tests can also be requested on animals, groups of humans or animals, devices such as dialysis machines, or even locations (typically for environmental scans)."
          }
        ],
        "linkId": "DiagnosticOrder.subject",
        "text": "Who and/or what test is about",
        "required": true,
        "repeats": true,
        "question": [
          {
            "linkId": "DiagnosticOrder.subject._type",
            "text": "type",
            "type": "choice",
            "options": {
              "reference": "#vs2"
            },
            "group": [
              {
                "http://www.healthintersections.com.au/fhir/Profile/metadata#type": [
                  {
                    "valueString": "Reference"
                  }
                ],
                "linkId": "DiagnosticOrder.subject._Patient",
                "question": [
                  {
                    "http://www.healthintersections.com.au/fhir/Profile/metadata#reference": [
                      {
                        "valueString": "/Patient?subject=$subj&patient=$subj&encounter=$encounter"
                      }
                    ],
                    "linkId": "DiagnosticOrder.subject._Patient.value",
                    "text": "Patient",
                    "type": "reference"
                  }
                ]
              },
              {
                "http://www.healthintersections.com.au/fhir/Profile/metadata#type": [
                  {
                    "valueString": "Reference"
                  }
                ],
                "linkId": "DiagnosticOrder.subject._Group",
                "question": [
                  {
                    "http://www.healthintersections.com.au/fhir/Profile/metadata#reference": [
                      {
                        "valueString": "/Group?subject=$subj&patient=$subj&encounter=$encounter"
                      }
                    ],
                    "linkId": "DiagnosticOrder.subject._Group.value",
                    "text": "Group",
                    "type": "reference"
                  }
                ]
              },
              {
                "http://www.healthintersections.com.au/fhir/Profile/metadata#type": [
                  {
                    "valueString": "Reference"
                  }
                ],
                "linkId": "DiagnosticOrder.subject._Location",
                "question": [
                  {
                    "http://www.healthintersections.com.au/fhir/Profile/metadata#reference": [
                      {
                        "valueString": "/Location?subject=$subj&patient=$subj&encounter=$encounter"
                      }
                    ],
                    "linkId": "DiagnosticOrder.subject._Location.value",
                    "text": "Location",
                    "type": "reference"
                  }
                ]
              },
              {
                "http://www.healthintersections.com.au/fhir/Profile/metadata#type": [
                  {
                    "valueString": "Reference"
                  }
                ],
                "linkId": "DiagnosticOrder.subject._Device",
                "question": [
                  {
                    "http://www.healthintersections.com.au/fhir/Profile/metadata#reference": [
                      {
                        "valueString": "/Device?subject=$subj&patient=$subj&encounter=$encounter"
                      }
                    ],
                    "linkId": "DiagnosticOrder.subject._Device.value",
                    "text": "Device",
                    "type": "reference"
                  }
                ]
              }
            ]
          }
        ]
      },
      {
        "http://hl7.org/fhir/Profile/questionnaire-extensions#flyover": [
          {
            "valueString": "The practitioner that holds legal responsibility for ordering the investigation."
          }
        ],
        "http://www.healthintersections.com.au/fhir/Profile/metadata#type": [
          {
            "valueString": "Reference"
          }
        ],
        "linkId": "DiagnosticOrder.orderer",
        "repeats": true,
        "question": [
          {
            "http://www.healthintersections.com.au/fhir/Profile/metadata#reference": [
              {
                "valueString": "/Practitioner?subject=$subj&patient=$subj&encounter=$encounter"
              }
            ],
            "linkId": "DiagnosticOrder.orderer.value",
            "text": "Who ordered the test",
            "type": "reference"
          }
        ]
      },
      {
        "http://hl7.org/fhir/Profile/questionnaire-extensions#flyover": [
          {
            "valueString": "Identifiers assigned to this order by the order or by the receiver."
          }
        ],
        "http://www.healthintersections.com.au/fhir/Profile/metadata#type": [
          {
            "valueString": "Identifier"
          }
        ],
        "linkId": "DiagnosticOrder.identifier",
        "text": "Identifiers assigned to this order",
        "repeats": true,
        "question": [
          {
            "linkId": "DiagnosticOrder.identifier.label",
            "text": "label:",
            "type": "string"
          },
          {
            "linkId": "DiagnosticOrder.identifier.system",
            "text": "system:",
            "type": "string"
          },
          {
            "linkId": "DiagnosticOrder.identifier.value",
            "text": "value:",
            "type": "string"
          }
        ]
      },
      {
        "http://hl7.org/fhir/Profile/questionnaire-extensions#flyover": [
          {
            "valueString": "An encounter that provides additional information about the healthcare context in which this request is made."
          }
        ],
        "http://www.healthintersections.com.au/fhir/Profile/metadata#type": [
          {
            "valueString": "Reference"
          }
        ],
        "linkId": "DiagnosticOrder.encounter",
        "repeats": true,
        "question": [
          {
            "http://www.healthintersections.com.au/fhir/Profile/metadata#reference": [
              {
                "valueString": "/Encounter?subject=$subj&patient=$subj&encounter=$encounter"
              }
            ],
            "linkId": "DiagnosticOrder.encounter.value",
            "text": "The encounter that this diagnostic order is associated with",
            "type": "reference"
          }
        ]
      },
      {
        "http://hl7.org/fhir/Profile/questionnaire-extensions#flyover": [
          {
            "valueString": "An explanation or justification for why this diagnostic investigation is being requested. This may be used to decide how the diagnostic investigation will be performed, or even if it will be performed at all."
          }
        ],
        "http://www.healthintersections.com.au/fhir/Profile/metadata#type": [
          {
            "valueString": "string"
          }
        ],
        "linkId": "DiagnosticOrder.clinicalNotes",
        "repeats": true,
        "question": [
          {
            "linkId": "DiagnosticOrder.clinicalNotes.value",
            "text": "Explanation/Justification for test",
            "type": "string"
          }
        ]
      },
      {
        "http://hl7.org/fhir/Profile/questionnaire-extensions#flyover": [
          {
            "valueString": "Additional clinical information about the patient or specimen that may influence test interpretations. This information includes diagnosis, clinical findings and other observations.  Examples include reporting the amount of inspired carbon dioxide for blood gasses, the point in the menstrual cycle for cervical pap tests, and other conditions that influence test interpretations."
          }
        ],
        "linkId": "DiagnosticOrder.supportingInformation",
        "text": "Supporting observations or conditions for this request",
        "repeats": true,
        "question": [
          {
            "linkId": "DiagnosticOrder.supportingInformation._type",
            "text": "type",
            "type": "choice",
            "options": {
              "reference": "#vs3"
            },
            "group": [
              {
                "http://www.healthintersections.com.au/fhir/Profile/metadata#type": [
                  {
                    "valueString": "Reference"
                  }
                ],
                "linkId": "DiagnosticOrder.supportingInformation._Observation",
                "question": [
                  {
                    "http://www.healthintersections.com.au/fhir/Profile/metadata#reference": [
                      {
                        "valueString": "/Observation?subject=$subj&patient=$subj&encounter=$encounter"
                      }
                    ],
                    "linkId": "DiagnosticOrder.supportingInformation._Observation.value",
                    "text": "Observation",
                    "type": "reference"
                  }
                ]
              },
              {
                "http://www.healthintersections.com.au/fhir/Profile/metadata#type": [
                  {
                    "valueString": "Reference"
                  }
                ],
                "linkId": "DiagnosticOrder.supportingInformation._Condition",
                "question": [
                  {
                    "http://www.healthintersections.com.au/fhir/Profile/metadata#reference": [
                      {
                        "valueString": "/Condition?subject=$subj&patient=$subj&encounter=$encounter"
                      }
                    ],
                    "linkId": "DiagnosticOrder.supportingInformation._Condition.value",
                    "text": "Condition",
                    "type": "reference"
                  }
                ]
              }
            ]
          }
        ]
      },
      {
        "http://hl7.org/fhir/Profile/questionnaire-extensions#flyover": [
          {
            "valueString": "One or more specimens that the diagnostic investigation is about. Many investigation requests will create a need for specimens, but the request itself is not actually about the specimens. This is provided for when the diagnostic investigation is requested on already existing specimens."
          }
        ],
        "http://www.healthintersections.com.au/fhir/Profile/metadata#type": [
          {
            "valueString": "Reference"
          }
        ],
        "linkId": "DiagnosticOrder.specimen",
        "repeats": true,
        "question": [
          {
            "http://www.healthintersections.com.au/fhir/Profile/metadata#reference": [
              {
                "valueString": "/Specimen?subject=$subj&patient=$subj&encounter=$encounter"
              }
            ],
            "linkId": "DiagnosticOrder.specimen.value",
            "text": "If the whole order relates to specific specimens",
            "type": "reference"
          }
        ]
      },
      {
        "http://hl7.org/fhir/Profile/questionnaire-extensions#flyover": [
          {
            "valueString": "The status of the order. Typically the system placing the order sets the status to requested. Thereafter, the order is maintained by the receiver that updates the status as the request is handled."
          }
        ],
        "http://www.healthintersections.com.au/fhir/Profile/metadata#type": [
          {
            "valueString": "code"
          }
        ],
        "linkId": "DiagnosticOrder.status",
        "repeats": true,
        "question": [
          {
            "linkId": "DiagnosticOrder.status.value",
            "text": "status",
            "type": "choice"
          }
        ]
      },
      {
        "http://hl7.org/fhir/Profile/questionnaire-extensions#flyover": [
          {
            "valueString": "The clinical priority associated with this order. The Order resource also has a priority. Generally, these should be the same, but they can be different, for instance in the case where the clinician indicates that the order is urgent, but the subsequent workflow process overrule this priority for some reason. The effective default value is \"normal\"."
          }
        ],
        "http://www.healthintersections.com.au/fhir/Profile/metadata#type": [
          {
            "valueString": "code"
          }
        ],
        "linkId": "DiagnosticOrder.priority",
        "repeats": true,
        "question": [
          {
            "linkId": "DiagnosticOrder.priority.value",
            "text": "priority",
            "type": "choice"
          }
        ]
      },
      {
        "http://hl7.org/fhir/Profile/questionnaire-extensions#flyover": [
          {
            "valueString": "A summary of the events of interest that have occurred as the request is processed. E.g. when the order was made, various processing steps (specimens received), when it was completed."
          }
        ],
        "linkId": "DiagnosticOrder.event",
        "title": "A list of events of interest in the lifecycle",
        "text": "This is not the same as an audit trail - it is a view of the important things that happened in the past. Typically, there would only be one entry for any given status, and systems may not record all the status events.",
        "repeats": true,
        "group": [
          {
            "http://hl7.org/fhir/Profile/questionnaire-extensions#flyover": [
              {
                "valueString": "unique id for the element within a resource (for internal references)."
              }
            ],
            "http://www.healthintersections.com.au/fhir/Profile/metadata#type": [
              {
                "valueString": "string"
              }
            ],
            "linkId": "DiagnosticOrder.event.id",
            "repeats": true,
            "question": [
              {
                "linkId": "DiagnosticOrder.event.id.value",
                "text": "xml:id (or equivalent in JSON)",
                "type": "string"
              }
            ]
          },
          {
            "http://hl7.org/fhir/Profile/questionnaire-extensions#flyover": [
              {
                "valueString": "The status for the event."
              }
            ],
            "http://www.healthintersections.com.au/fhir/Profile/metadata#type": [
              {
                "valueString": "code"
              }
            ],
            "linkId": "DiagnosticOrder.event.status",
            "required": true,
            "repeats": true,
            "question": [
              {
                "linkId": "DiagnosticOrder.event.status.value",
                "text": "status",
                "type": "choice"
              }
            ]
          },
          {
            "http://hl7.org/fhir/Profile/questionnaire-extensions#flyover": [
              {
                "valueString": "Additional information about the event that occurred - e.g. if the status remained unchanged."
              }
            ],
            "http://www.healthintersections.com.au/fhir/Profile/metadata#type": [
              {
                "valueString": "CodeableConcept"
              }
            ],
            "linkId": "DiagnosticOrder.event.description",
            "text": "More information about the event and its context",
            "repeats": true,
            "question": [
              {
                "linkId": "DiagnosticOrder.event.description.coding",
                "text": "code:",
                "type": "open-choice"
              },
              {
                "linkId": "DiagnosticOrder.event.description.text",
                "text": "text:",
                "type": "string"
              }
            ]
          },
          {
            "http://hl7.org/fhir/Profile/questionnaire-extensions#flyover": [
              {
                "valueString": "The date/time at which the event occurred."
              }
            ],
            "http://www.healthintersections.com.au/fhir/Profile/metadata#type": [
              {
                "valueString": "datetime"
              }
            ],
            "linkId": "DiagnosticOrder.event.dateTime",
            "required": true,
            "repeats": true,
            "question": [
              {
                "linkId": "DiagnosticOrder.event.dateTime.value",
                "text": "The date at which the event happened",
                "type": "dateTime"
              }
            ]
          },
          {
            "http://hl7.org/fhir/Profile/questionnaire-extensions#flyover": [
              {
                "valueString": "The person who was responsible for performing or recording the action."
              }
            ],
            "linkId": "DiagnosticOrder.event.actor",
            "text": "Who recorded or did this",
            "repeats": true,
            "question": [
              {
                "linkId": "DiagnosticOrder.event.actor._type",
                "text": "type",
                "type": "choice",
                "options": {
                  "reference": "#vs4"
                },
                "group": [
                  {
                    "http://www.healthintersections.com.au/fhir/Profile/metadata#type": [
                      {
                        "valueString": "Reference"
                      }
                    ],
                    "linkId": "DiagnosticOrder.event.actor._Practitioner",
                    "question": [
                      {
                        "http://www.healthintersections.com.au/fhir/Profile/metadata#reference": [
                          {
                            "valueString": "/Practitioner?subject=$subj&patient=$subj&encounter=$encounter"
                          }
                        ],
                        "linkId": "DiagnosticOrder.event.actor._Practitioner.value",
                        "text": "Practitioner",
                        "type": "reference"
                      }
                    ]
                  },
                  {
                    "http://www.healthintersections.com.au/fhir/Profile/metadata#type": [
                      {
                        "valueString": "Reference"
                      }
                    ],
                    "linkId": "DiagnosticOrder.event.actor._Device",
                    "question": [
                      {
                        "http://www.healthintersections.com.au/fhir/Profile/metadata#reference": [
                          {
                            "valueString": "/Device?subject=$subj&patient=$subj&encounter=$encounter"
                          }
                        ],
                        "linkId": "DiagnosticOrder.event.actor._Device.value",
                        "text": "Device",
                        "type": "reference"
                      }
                    ]
                  }
                ]
              }
            ]
          }
        ]
      },
      {
        "http://hl7.org/fhir/Profile/questionnaire-extensions#flyover": [
          {
            "valueString": "The specific diagnostic investigations that are requested as part of this request. Sometimes, there can only be one item per request, but in most contexts, more than one investigation can be requested."
          }
        ],
        "linkId": "DiagnosticOrder.item",
        "title": "The items the orderer requested",
        "text": "There would always be at least one item in normal usage, but this is optional so that a workflow can quote order details without having to list the items.",
        "repeats": true,
        "group": [
          {
            "http://hl7.org/fhir/Profile/questionnaire-extensions#flyover": [
              {
                "valueString": "unique id for the element within a resource (for internal references)."
              }
            ],
            "http://www.healthintersections.com.au/fhir/Profile/metadata#type": [
              {
                "valueString": "string"
              }
            ],
            "linkId": "DiagnosticOrder.item.id",
            "repeats": true,
            "question": [
              {
                "linkId": "DiagnosticOrder.item.id.value",
                "text": "xml:id (or equivalent in JSON)",
                "type": "string"
              }
            ]
          },
          {
            "http://hl7.org/fhir/Profile/questionnaire-extensions#flyover": [
              {
                "valueString": "A code that identifies a particular diagnostic investigation, or panel of investigations, that have been requested. Many laboratory tests and radiology tests embed the specimen/organ system in the test name, for example,  serum or serum/plasma glucose, or a chest xray. The specimen may not be recorded separately from the test code."
              }
            ],
            "http://www.healthintersections.com.au/fhir/Profile/metadata#type": [
              {
                "valueString": "CodeableConcept"
              }
            ],
            "linkId": "DiagnosticOrder.item.code",
            "text": "Code to indicate the item (test or panel) being ordered",
            "required": true,
            "repeats": true,
            "question": [
              {
                "linkId": "DiagnosticOrder.item.code.coding",
                "text": "code:",
                "type": "open-choice"
              },
              {
                "linkId": "DiagnosticOrder.item.code.text",
                "text": "text:",
                "type": "string"
              }
            ]
          },
          {
            "http://hl7.org/fhir/Profile/questionnaire-extensions#flyover": [
              {
                "valueString": "If the item is related to a specific specimen. A single specimen should not appear in both DiagnosticOrder.specimen and DiagnosticOrder.item.specimen."
              }
            ],
            "http://www.healthintersections.com.au/fhir/Profile/metadata#type": [
              {
                "valueString": "Reference"
              }
            ],
            "linkId": "DiagnosticOrder.item.specimen",
            "repeats": true,
            "question": [
              {
                "http://www.healthintersections.com.au/fhir/Profile/metadata#reference": [
                  {
                    "valueString": "/Specimen?subject=$subj&patient=$subj&encounter=$encounter"
                  }
                ],
                "linkId": "DiagnosticOrder.item.specimen.value",
                "text": "If this item relates to specific specimens",
                "type": "reference"
              }
            ]
          },
          {
            "http://hl7.org/fhir/Profile/questionnaire-extensions#flyover": [
              {
                "valueString": "Anatomical location where the request test should be performed."
              }
            ],
            "http://www.healthintersections.com.au/fhir/Profile/metadata#type": [
              {
                "valueString": "CodeableConcept"
              }
            ],
            "linkId": "DiagnosticOrder.item.bodySite",
            "text": "Location of requested test (if applicable)",
            "repeats": true,
            "question": [
              {
                "linkId": "DiagnosticOrder.item.bodySite.coding",
                "text": "code:",
                "type": "open-choice"
              },
              {
                "linkId": "DiagnosticOrder.item.bodySite.text",
                "text": "text:",
                "type": "string"
              }
            ]
          },
          {
            "http://hl7.org/fhir/Profile/questionnaire-extensions#flyover": [
              {
                "valueString": "The status of this individual item within the order. If the request has multiple items that have their own life cycles, then the items will have their own status while the overall diagnostic order is (usually) \"in progress\"."
              }
            ],
            "http://www.healthintersections.com.au/fhir/Profile/metadata#type": [
              {
                "valueString": "code"
              }
            ],
            "linkId": "DiagnosticOrder.item.status",
            "repeats": true,
            "question": [
              {
                "linkId": "DiagnosticOrder.item.status.value",
                "text": "status",
                "type": "choice"
              }
            ]
          },
          {
            "http://hl7.org/fhir/Profile/questionnaire-extensions#flyover": [
              {
                "valueString": "A summary of the events of interest that have occurred as this item of the request is processed."
              }
            ],
            "linkId": "DiagnosticOrder.item.event",
            "title": "Events specific to this item",
            "repeats": true
          }
        ]
      }
    ]
  }
}