{
  "resourceType": "Bundle",
  "id": "father",
  "meta": {
    "lastUpdated": "2013-05-28T22:12:21Z",
    "tag": [
      {
        "system": "http://hl7.org/fhir/tag",
        "code": "document"
      }
    ]
  },
  "type": "document",
  "entry": [
    {
      "resource": {
        "resourceType": "Composition",
        "id": "180f219f-97a8-486d-99d9-ed631fe4fc57",
        "meta": {
          "lastUpdated": "2013-05-28T22:12:21Z"
        },
        "date": "2013-02-01T12:30:02",
        "type": {
          "coding": [
            {
              "system": "www.loinc.org",
              "code": "28655-9"
            }
          ],
          "text": "Discharge Summary from Responsible Clinician"
        },
        "status": "final",
        "confidentiality": {
          "system": "www.nz.org",
          "code": "1234-5",
          "display": "Normal"
        },
        "subject": {
          "reference": "http://fhir.healthintersections.com.au/open/Patient/d1",
          "display": "Eve Everywoman"
        },
        "author": [
          {
            "reference": "http://fhir.healthintersections.com.au/open/Practitioner/example",
            "display": "Doctor Dave"
          }
        ],
        "section": [
          {
            "title": "Encounter Information",
            "content": {
              "reference": "http://fhir.healthintersections.com.au/open/Encounter/example"
            }
          },
          {
            "title": "Reason for admission",
            "content": {
              "reference": "urn:guid:d0dd51d3-3ab2-4c84-b697-a630c3e40e7a"
            }
          },
          {
            "title": "Medications on Discharge",
            "content": {
              "reference": "urn:guid:673f8db5-0ffd-4395-9657-6da00420bbc1"
            }
          },
          {
            "title": "Known allergies",
            "content": {
              "reference": "urn:guid:68f86194-e6e1-4f65-b64a-5314256f8d7b"
            }
          }
        ]
      }
    },
    {
      "resource": {
        "resourceType": "Practitioner",
        "id": "doc-example",
        "meta": {
          "lastUpdated": "2013-05-05T16:13:03Z"
        },
        "text": {
          "status": "generated",
          "div": "<div>\n            <h5>Doctor dave</h5>\n          </div>"
        },
        "name": {
          "text": "Doctor Dave"
        }
      }
    },
    {
      "resource": {
        "resourceType": "Patient",
        "id": "62f2395a-7575-4e8d-afeb-c8280d8c0ec1",
        "text": {
          "status": "generated",
          "div": "<div>\n            <h5>Eve Everywoman</h5>\n          </div>"
        },
        "identifier": [
          {
            "system": "nhi"
          }
        ],
        "name": [
          {
            "text": "Eve Everywoman",
            "family": [
              "Everywoman1"
            ],
            "given": [
              "Eve"
            ]
          }
        ],
        "telecom": [
          {
            "system": "phone",
            "value": "555-555-2003",
            "use": "work"
          }
        ],
        "gender": "female",
        "birthDate": "1955-01-06",
        "address": [
          {
            "use": "home",
            "line": [
              "2222 Home Street"
            ]
          }
        ],
        "active": true
      }
    },
    {
      "resource": {
        "resourceType": "Encounter",
        "id": "doc-example",
        "meta": {
          "lastUpdated": "2013-05-05T16:13:03Z"
        },
        "text": {
          "status": "generated",
          "div": "<div> Admitted to Orthopedics Service,\n                        Middlemore Hospital between Jan 20 and Feb ist 2013 </div>"
        },
        "identifier": [
          {
            "value": "S100"
          }
        ],
        "status": "finished",
        "class": "inpatient",
        "type": [
          {
            "text": "Orthopedic Admission"
          }
        ],
        "patient": {
          "reference": "http://fhir.healthintersections.com.au/open/Patient/d1"
        },
        "period": {
          "start": "2013-01-20T12:30:02",
          "end": "2013-02-01T12:30:02"
        },
        "hospitalization": {
          "dischargeDisposition": {
            "text": "Discharged to care of GP"
          }
        }
      }
    },
    {
      "resource": {
        "resourceType": "Observation",
        "id": "d0dd51d3-3ab2-4c84-b697-a630c3e40e7a",
        "meta": {
          "lastUpdated": "2013-05-05T16:13:03Z"
        },
        "text": {
          "status": "additional",
          "div": "<div> Acute Asthmatic attack. Was wheezing\n                        for days prior to admission. </div>"
        },
        "name": {
          "coding": [
            {
              "system": "http://loinc.org",
              "code": "46241-6"
            }
          ],
          "text": "Reason for admission"
        },
        "valueString": "Acute Asthmatic attack. Was wheezing for days prior to admission.",
        "status": "final",
        "reliability": "ok"
      }
    },
    {
      "resource": {
        "resourceType": "List",
        "id": "673f8db5-0ffd-4395-9657-6da00420bbc1",
        "meta": {
          "lastUpdated": "2013-05-05T16:13:03Z"
        },
        "text": {
          "status": "additional",
          "div": "<div>\n            <table>\n              <thead>\n                <tr>\n                  <td>Medication</td>\n                  <td>Last Change</td>\n                  <td>Last ChangeReason</td>\n                </tr>\n              </thead>\n              <tbody>\n                <tr>\n                  <td>Theophylline 200mg BD after meals</td>\n                  <td>continued</td>\n                </tr>\n                <tr>\n                  <td>Ventolin Inhaler</td>\n                  <td>stopped</td>\n                  <td>Getting side effect of tremor</td>\n                </tr>\n              </tbody>\n            </table>\n          </div>"
        },
        "code": {
          "coding": [
            {
              "system": "http://loinc.org",
              "code": "10183-2",
              "display": "Hospital discharge medications"
            }
          ]
        },
        "mode": "working",
        "entry": [
          {
            "flag": [
              {
                "coding": [
                  {
                    "system": "http://www.ithealthboard.health.nz/fhir/ValueSet/medicationStatus",
                    "code": "started"
                  }
                ]
              }
            ],
            "item": {
              "reference": "urn:guid:124a6916-5d84-4b8c-b250-10cefb8e6e86"
            }
          },
          {
            "flag": [
              {
                "coding": [
                  {
                    "system": "http://www.ithealthboard.health.nz/fhir/ValueSet/medicationStatus",
                    "code": "stopped"
                  }
                ]
              }
            ],
            "deleted": true,
            "item": {
              "reference": "http://fhir.healthintersections.com.au/open/MedicationPrescription/1",
              "display": "use of Ventolin Inhaler was discontinued"
            }
          }
        ]
      }
    },
    {
      "resource": {
        "resourceType": "MedicationPrescription",
        "id": "124a6916-5d84-4b8c-b250-10cefb8e6e86",
        "meta": {
          "lastUpdated": "2013-05-05T16:13:03Z"
        },
        "text": {
          "status": "generated",
          "div": "<div>\n            <p>Theophylline 200mg twice a day</p>\n          </div>"
        },
        "contained": [
          {
            "resourceType": "Medication",
            "id": "med1",
            "name": "Theophylline 200mg",
            "code": {
              "coding": [
                {
                  "system": "http:/snomed.org",
                  "code": "66493003"
                }
              ]
            }
          }
        ],
        "patient": {
          "reference": "http://fhir.healthintersections.com.au/open/Patient/d1",
          "display": "Peter Patient"
        },
        "prescriber": {
          "reference": "Practitioner/example",
          "display": "Peter Practitioner"
        },
        "reasonCodeableConcept": {
          "text": "Management of Asthma"
        },
        "medication": {
          "reference": "Medication/example",
          "display": "Theophylline 200mg BD"
        },
        "dosageInstruction": [
          {
            "additionalInstructions": {
              "text": "Take with Food"
            },
            "scheduledTiming": {
              "repeat": {
                "frequency": 2,
                "duration": 1,
                "units": "d"
              }
            },
            "route": {
              "coding": [
                {
                  "system": "http://snomed.info/sct",
                  "code": "394899003",
                  "display": "oral administration of treatment"
                }
              ]
            },
            "doseQuantity": {
              "value": 1,
              "units": "tablet",
              "system": "http://unitsofmeasure.org",
              "code": "tbl"
            }
          }
        ]
      }
    },
    {
      "resource": {
        "resourceType": "List",
        "id": "68f86194-e6e1-4f65-b64a-5314256f8d7b",
        "meta": {
          "lastUpdated": "2013-05-05T16:13:03Z"
        },
        "text": {
          "status": "additional",
          "div": "<div>\n            <table>\n              <thead>\n                <tr>\n                  <td>Allergen</td>\n                  <td>Reaction</td>\n                </tr>\n              </thead>\n              <tbody>\n                <tr>\n                  <td>Doxycycline</td>\n                  <td>Hives</td>\n                </tr>\n              </tbody>\n            </table>\n          </div>"
        },
        "code": {
          "coding": [
            {
              "system": "http://loinc.org",
              "code": "48765-2",
              "display": "Allergies and adverse reactions Document"
            }
          ]
        },
        "mode": "working",
        "entry": [
          {
            "item": {
              "reference": "urn:guid:47600e0f-b6b5-4308-84b5-5dec157f7637"
            }
          }
        ]
      }
    },
    {
      "resource": {
        "resourceType": "AllergyIntolerance",
        "id": "47600e0f-b6b5-4308-84b5-5dec157f7637",
        "meta": {
          "lastUpdated": "2013-05-05T16:13:03Z"
        },
        "text": {
          "status": "generated",
          "div": "<div>Sensitivity to Doxycycline :\n                        Hives</div>"
        },
        "recordedDate": "2012-09-17",
        "subject": {
          "reference": "http://fhir.healthintersections.com.au/open/Patient/d1",
          "display": "Eve Everywoman"
        },
        "substance": {
          "text": "Doxycycline"
        },
        "status": "confirmed",
        "criticality": "high",
        "type": "immune",
        "event": [
          {
            "manifestation": [
              {
                "coding": [
                  {
                    "system": "sys",
                    "code": "xxx",
                    "display": "Hives"
                  }
                ],
                "text": "Hives"
              }
            ]
          }
        ]
      }
    }
  ]
}