{
  "resourceType": "DocumentReference",
  "id": "example",
  "contained": [
    {
      "resourceType": "Practitioner",
      "id": "a1",
      "name": {
        "family": [
          "Dopplemeyer"
        ],
        "given": [
          "Sherry"
        ]
      },
      "telecom": [
        {
          "system": "email",
          "value": "john.doe@healthcare.example.org"
        }
      ],
      "organization": {
        "display": "Cleveland Clinic"
      },
      "role": [
        {
          "text": "Primary Surgon"
        }
      ],
      "specialty": [
        {
          "text": "Orthopedic"
        }
      ]
    },
    {
      "resourceType": "Practitioner",
      "id": "a2",
      "name": {
        "family": [
          "Smitty"
        ],
        "given": [
          "Gerald"
        ]
      },
      "telecom": [
        {
          "system": "email",
          "value": "john.doe@healthcare.example.org"
        }
      ],
      "organization": {
        "display": "Cleveland Clinic"
      },
      "role": [
        {
          "text": "Attending"
        }
      ],
      "specialty": [
        {
          "text": "Orthopedic"
        }
      ]
    }
  ],
  "masterIdentifier": {
    "system": "urn:ietf:rfc:3986",
    "value": "urn:oid:1.3.6.1.4.1.21367.2005.3.7"
  },
  "subject": {
    "reference": "Patient/xcda"
  },
  "type": {
    "coding": [
      {
        "system": "http://loinc.org",
        "code": "34108-1",
        "display": "Outpatient Note"
      }
    ]
  },
  "author": [
    {
      "reference": "#a1"
    },
    {
      "reference": "#a2"
    }
  ],
  "created": "2005-12-24T09:35:00+11:00",
  "indexed": "2005-12-24T09:43:41+11:00",
  "status": "current",
  "description": "Physical",
  "confidentiality": [
    {
      "coding": [
        {
          "system": "http://ihe.net/xds/connectathon/confidentialityCodes",
          "code": "1.3.6.1.4.1.21367.2006.7.101",
          "display": "Clinical-Staff"
        }
      ]
    }
  ],
  "primaryLanguage": "en-US",
  "mimeType": "application/hl7-v3+xml",
  "size": 3654,
  "hash": "2jmj7l5rSw0yVb/vlWAYkK/YBwk=",
  "location": "http://example.org/xds/mhd/Binary/07a6483f-732b-461e-86b6-edb665c45510",
  "context": {
    "event": [
      {
        "coding": [
          {
            "system": "http://ihe.net/xds/connectathon/eventCodes",
            "code": "T-D8200",
            "display": "Arm"
          }
        ]
      }
    ],
    "period": {
      "start": "2004-12-23T08:00:00",
      "end": "2004-12-23T08:01:00"
    },
    "facilityType": {
      "coding": [
        {
          "system": "http://www.ihe.net/xds/connectathon/healthcareFacilityTypeCodes",
          "code": "Outpatient",
          "display": "Outpatient"
        }
      ]
    }
  }
}