{
  "resourceType": "Questionnaire",
  "id": "qs1",
  "contained": [
    {
      "resourceType": "ValueSet",
      "id": "vs2",
      "identifier": "urn:uuid:6f380d8f-8864-473e-a405-b11488d94e67",
      "name": "Type options for DocumentReference.subject",
      "description": "Type options for DocumentReference.subject",
      "status": "active",
      "expansion": {
        "timestamp": "2014-12-12T13:20:14.737+11:00",
        "contains": [
          {
            "system": "http://hl7.org/fhir/resource-types",
            "code": "Patient",
            "display": "Patient"
          },
          {
            "system": "http://hl7.org/fhir/resource-types",
            "code": "Practitioner",
            "display": "Practitioner"
          },
          {
            "system": "http://hl7.org/fhir/resource-types",
            "code": "Group",
            "display": "Group"
          },
          {
            "system": "http://hl7.org/fhir/resource-types",
            "code": "Device",
            "display": "Device"
          }
        ]
      }
    },
    {
      "resourceType": "ValueSet",
      "id": "vs3",
      "identifier": "urn:uuid:4b7307b1-5677-4259-8f27-31631eff2c03",
      "name": "Type options for DocumentReference.author",
      "description": "Type options for DocumentReference.author",
      "status": "active",
      "expansion": {
        "timestamp": "2014-12-12T13:20:14.737+11:00",
        "contains": [
          {
            "system": "http://hl7.org/fhir/resource-types",
            "code": "Practitioner",
            "display": "Practitioner"
          },
          {
            "system": "http://hl7.org/fhir/resource-types",
            "code": "Device",
            "display": "Device"
          },
          {
            "system": "http://hl7.org/fhir/resource-types",
            "code": "Patient",
            "display": "Patient"
          },
          {
            "system": "http://hl7.org/fhir/resource-types",
            "code": "RelatedPerson",
            "display": "RelatedPerson"
          }
        ]
      }
    },
    {
      "resourceType": "ValueSet",
      "id": "vs4",
      "identifier": "urn:uuid:cfdb5aed-6a31-463a-9072-2470ca63a0d5",
      "name": "Type options for DocumentReference.authenticator",
      "description": "Type options for DocumentReference.authenticator",
      "status": "active",
      "expansion": {
        "timestamp": "2014-12-12T13:20:14.737+11:00",
        "contains": [
          {
            "system": "http://hl7.org/fhir/resource-types",
            "code": "Practitioner",
            "display": "Practitioner"
          },
          {
            "system": "http://hl7.org/fhir/resource-types",
            "code": "Organization",
            "display": "Organization"
          }
        ]
      }
    }
  ],
  "identifier": [
    {
      "system": "urn:ietf:rfc:3986"
    }
  ],
  "status": "draft",
  "date": "2014-12-12T13:17:44.755+11:00",
  "publisher": "HL7 FHIR Project (FHIR Management Group)",
  "group": {
    "http://hl7.org/fhir/Profile/questionnaire-extensions#flyover": [
      {
        "valueString": "A reference to a document."
      }
    ],
    "linkId": "DocumentReference",
    "title": "A reference to a document",
    "text": "Usually, this is used for documents other than those defined by FHIR.",
    "required": true,
    "group": [
      {
        "http://hl7.org/fhir/Profile/questionnaire-extensions#flyover": [
          {
            "valueString": "The logical id of the resource, as used in the url for the resoure. Once assigned, this value never changes. The only time that a resource does not have an id is when it is being submitted to the server using a create operation. Bundles always have an id, though it is usually a generated UUID."
          }
        ],
        "http://www.healthintersections.com.au/fhir/Profile/metadata#type": [
          {
            "valueString": "string"
          }
        ],
        "linkId": "DocumentReference.id",
        "repeats": true,
        "question": [
          {
            "linkId": "DocumentReference.id.value",
            "text": "Logical id of this artefact",
            "type": "string"
          }
        ]
      },
      {
        "http://hl7.org/fhir/Profile/questionnaire-extensions#flyover": [
          {
            "valueString": "The metadata about the resource. This is content that is maintained by the infrastructure. Changes to the content may not always be associated with version changes to the resource."
          }
        ],
        "linkId": "DocumentReference.meta",
        "title": "Metadata about the resource",
        "group": [
          {
            "http://hl7.org/fhir/Profile/questionnaire-extensions#flyover": [
              {
                "valueString": "unique id for the element within a resource (for internal references)."
              }
            ],
            "http://www.healthintersections.com.au/fhir/Profile/metadata#type": [
              {
                "valueString": "string"
              }
            ],
            "linkId": "DocumentReference.meta.id",
            "repeats": true,
            "question": [
              {
                "linkId": "DocumentReference.meta.id.value",
                "text": "xml:id (or equivalent in JSON)",
                "type": "string"
              }
            ]
          },
          {
            "http://hl7.org/fhir/Profile/questionnaire-extensions#flyover": [
              {
                "valueString": "The version specific identifier, as it appears in the version portion of the url. This values changes when the resource is created, updated, or deleted. The server assigns this value, and ignores what the client specifies, except in the case that the server is imposing version integrity on updates/deletes."
              }
            ],
            "http://www.healthintersections.com.au/fhir/Profile/metadata#type": [
              {
                "valueString": "string"
              }
            ],
            "linkId": "DocumentReference.meta.versionId",
            "repeats": true,
            "question": [
              {
                "linkId": "DocumentReference.meta.versionId.value",
                "text": "Version specific identifier",
                "type": "string"
              }
            ]
          },
          {
            "http://hl7.org/fhir/Profile/questionnaire-extensions#flyover": [
              {
                "valueString": "When the resource last changed - e.g. when the version changed. This value is always populated except when the resource is first being created. The server / resource manager sets this value; what a client provides is irrelevant."
              }
            ],
            "http://www.healthintersections.com.au/fhir/Profile/metadata#type": [
              {
                "valueString": "instant"
              }
            ],
            "linkId": "DocumentReference.meta.lastUpdated",
            "repeats": true,
            "question": [
              {
                "linkId": "DocumentReference.meta.lastUpdated.value",
                "text": "When the resource version last changed",
                "type": "instant"
              }
            ]
          },
          {
            "http://hl7.org/fhir/Profile/questionnaire-extensions#flyover": [
              {
                "valueString": "A list of profiles that this resource claims to conform to. The URL is a reference to Profile.url. It is up to the server and/or other infrastruture of policy to determine whether/how these claims are verified and/or updated over tiem."
              }
            ],
            "http://www.healthintersections.com.au/fhir/Profile/metadata#type": [
              {
                "valueString": "uri"
              }
            ],
            "linkId": "DocumentReference.meta.profile",
            "repeats": true,
            "question": [
              {
                "linkId": "DocumentReference.meta.profile.value",
                "text": "Profiles this resource claims to conform to",
                "type": "string"
              }
            ]
          },
          {
            "http://hl7.org/fhir/Profile/questionnaire-extensions#flyover": [
              {
                "valueString": "Security labels applied to this resource. These tags connect specific resources to the overall security policy and infrastructure. The security labels can be updated without changing the stated version of the resource."
              }
            ],
            "http://www.healthintersections.com.au/fhir/Profile/metadata#type": [
              {
                "valueString": "Coding"
              }
            ],
            "linkId": "DocumentReference.meta.security",
            "repeats": true,
            "question": [
              {
                "linkId": "DocumentReference.meta.security.value",
                "text": "Security Labels applied to this resource",
                "type": "open-choice"
              }
            ]
          },
          {
            "http://hl7.org/fhir/Profile/questionnaire-extensions#flyover": [
              {
                "valueString": "Tags applied to this resource. Tags are intended to to be used to identify and relate resources to process and workflow, and applications are not required to consider the tags when interpreting the meaning of a resource. The tags can be updated without changing the stated version of the resource."
              }
            ],
            "http://www.healthintersections.com.au/fhir/Profile/metadata#type": [
              {
                "valueString": "Coding"
              }
            ],
            "linkId": "DocumentReference.meta.tag",
            "repeats": true,
            "question": [
              {
                "linkId": "DocumentReference.meta.tag.value",
                "text": "Tags applied",
                "type": "open-choice"
              }
            ]
          }
        ]
      },
      {
        "http://hl7.org/fhir/Profile/questionnaire-extensions#flyover": [
          {
            "valueString": "A reference to a set of rules that were followed when the resource was constructed, and which must be understood when processing the content. Asserting this rule set restricts the content to be only understood by a limited set of trading partners. This inherently limits the usefulness of the data in the long term. However the existing health eco-system is highly fractured, and not yet ready to define, collect, and exchange data in a generally computable sense. Wherever possible, implementers and/or specification writers should avoid using this element as much as possible."
          }
        ],
        "http://www.healthintersections.com.au/fhir/Profile/metadata#type": [
          {
            "valueString": "uri"
          }
        ],
        "linkId": "DocumentReference.implicitRules",
        "repeats": true,
        "question": [
          {
            "linkId": "DocumentReference.implicitRules.value",
            "text": "A set of rules under which this content was created",
            "type": "string"
          }
        ]
      },
      {
        "http://hl7.org/fhir/Profile/questionnaire-extensions#flyover": [
          {
            "valueString": "The base language in which the resource is written. Language is provided to support indexing and accessibility (typically, services such as text to speech use the language tag). The html language tag in the narrative applies  to the narrative. The language tag on the resource may be used to specify the language of other presentations generated from the data in the resource\n\nNot all the content has to be in the base language. The Resource.language should not be assumed to apply to the narrative automatically. If a language is specified, it should it also be specified on the div element in the html (see rules in HTML5 for information about the relationship between xml:lang and the html lang attribute)."
          }
        ],
        "http://www.healthintersections.com.au/fhir/Profile/metadata#type": [
          {
            "valueString": "code"
          }
        ],
        "linkId": "DocumentReference.language",
        "repeats": true,
        "question": [
          {
            "linkId": "DocumentReference.language.value",
            "text": "language",
            "type": "choice"
          }
        ]
      },
      {
        "http://hl7.org/fhir/Profile/questionnaire-extensions#flyover": [
          {
            "valueString": "A human-readable narrative that contains a summary of the resource, and may be used to represent the content of the resource to a human. The narrative need not encode all the structured data, but is required to contain sufficient detail to make it \"clinically safe\" for a human to just read the narrative. Resource definitions may define what content should be represented in the narrative to ensure clinical safety. Contained resources do not have narrative. Resources that are not contained SHOULD have a narrative."
          }
        ],
        "linkId": "DocumentReference.text",
        "text": "Text summary of the resource, for human interpretation",
        "repeats": true
      },
      {
        "http://hl7.org/fhir/Profile/questionnaire-extensions#flyover": [
          {
            "valueString": "These resources do not have an independent existence apart from the resource that contains them - they cannot be identified independently, and nor can they have their own independent transaction scope. This should never be done when the content can be identified properly, as once identification is lost, it is extremely difficult (and context dependent) to restore it again."
          }
        ],
        "linkId": "DocumentReference.contained",
        "text": "Contained, inline Resources",
        "repeats": true
      },
      {
        "http://hl7.org/fhir/Profile/questionnaire-extensions#flyover": [
          {
            "valueString": "Document identifier as assigned by the source of the document. This identifier is specific to this version of the document. This unique identifier may be used elsewhere to identify this version of the document."
          }
        ],
        "http://www.healthintersections.com.au/fhir/Profile/metadata#type": [
          {
            "valueString": "Identifier"
          }
        ],
        "linkId": "DocumentReference.masterIdentifier",
        "text": "Master Version Specific Identifier",
        "required": true,
        "repeats": true,
        "question": [
          {
            "linkId": "DocumentReference.masterIdentifier.label",
            "text": "label:",
            "type": "string"
          },
          {
            "linkId": "DocumentReference.masterIdentifier.system",
            "text": "system:",
            "type": "string"
          },
          {
            "linkId": "DocumentReference.masterIdentifier.value",
            "text": "value:",
            "type": "string"
          }
        ]
      },
      {
        "http://hl7.org/fhir/Profile/questionnaire-extensions#flyover": [
          {
            "valueString": "Other identifiers associated with the document, including version independent, source record and workflow related identifiers. Other identifiers can also include Identifiers may be Accession Numbers, Order Numbers, Referral Request \nIdentifiers, XDS Workflow Instance Identifiers."
          }
        ],
        "http://www.healthintersections.com.au/fhir/Profile/metadata#type": [
          {
            "valueString": "Identifier"
          }
        ],
        "linkId": "DocumentReference.identifier",
        "text": "Other identifiers for the document",
        "repeats": true,
        "question": [
          {
            "linkId": "DocumentReference.identifier.label",
            "text": "label:",
            "type": "string"
          },
          {
            "linkId": "DocumentReference.identifier.system",
            "text": "system:",
            "type": "string"
          },
          {
            "linkId": "DocumentReference.identifier.value",
            "text": "value:",
            "type": "string"
          }
        ]
      },
      {
        "http://hl7.org/fhir/Profile/questionnaire-extensions#flyover": [
          {
            "valueString": "Who or what the document is about. The document can be about a person, (patient or healthcare practitioner), a device (I.e. machine) or even a group of subjects (such as a document about a herd of farm animals, or a set of patients that share a common exposure)."
          }
        ],
        "linkId": "DocumentReference.subject",
        "text": "Who|what is the subject of the document",
        "required": true,
        "repeats": true,
        "question": [
          {
            "linkId": "DocumentReference.subject._type",
            "text": "type",
            "type": "choice",
            "options": {
              "reference": "#vs2"
            },
            "group": [
              {
                "http://www.healthintersections.com.au/fhir/Profile/metadata#type": [
                  {
                    "valueString": "Reference"
                  }
                ],
                "linkId": "DocumentReference.subject._Patient",
                "question": [
                  {
                    "http://www.healthintersections.com.au/fhir/Profile/metadata#reference": [
                      {
                        "valueString": "/Patient?subject=$subj&patient=$subj&encounter=$encounter"
                      }
                    ],
                    "linkId": "DocumentReference.subject._Patient.value",
                    "text": "Patient",
                    "type": "reference"
                  }
                ]
              },
              {
                "http://www.healthintersections.com.au/fhir/Profile/metadata#type": [
                  {
                    "valueString": "Reference"
                  }
                ],
                "linkId": "DocumentReference.subject._Practitioner",
                "question": [
                  {
                    "http://www.healthintersections.com.au/fhir/Profile/metadata#reference": [
                      {
                        "valueString": "/Practitioner?subject=$subj&patient=$subj&encounter=$encounter"
                      }
                    ],
                    "linkId": "DocumentReference.subject._Practitioner.value",
                    "text": "Practitioner",
                    "type": "reference"
                  }
                ]
              },
              {
                "http://www.healthintersections.com.au/fhir/Profile/metadata#type": [
                  {
                    "valueString": "Reference"
                  }
                ],
                "linkId": "DocumentReference.subject._Group",
                "question": [
                  {
                    "http://www.healthintersections.com.au/fhir/Profile/metadata#reference": [
                      {
                        "valueString": "/Group?subject=$subj&patient=$subj&encounter=$encounter"
                      }
                    ],
                    "linkId": "DocumentReference.subject._Group.value",
                    "text": "Group",
                    "type": "reference"
                  }
                ]
              },
              {
                "http://www.healthintersections.com.au/fhir/Profile/metadata#type": [
                  {
                    "valueString": "Reference"
                  }
                ],
                "linkId": "DocumentReference.subject._Device",
                "question": [
                  {
                    "http://www.healthintersections.com.au/fhir/Profile/metadata#reference": [
                      {
                        "valueString": "/Device?subject=$subj&patient=$subj&encounter=$encounter"
                      }
                    ],
                    "linkId": "DocumentReference.subject._Device.value",
                    "text": "Device",
                    "type": "reference"
                  }
                ]
              }
            ]
          }
        ]
      },
      {
        "http://hl7.org/fhir/Profile/questionnaire-extensions#flyover": [
          {
            "valueString": "Specifies the particular kind of document (e.g. Patient Summary, Discharge Summary, Prescription, etc.). Key metadata element describing the document, used in searching/filtering."
          }
        ],
        "http://www.healthintersections.com.au/fhir/Profile/metadata#type": [
          {
            "valueString": "CodeableConcept"
          }
        ],
        "linkId": "DocumentReference.type",
        "text": "What kind of document this is (LOINC if possible)",
        "required": true,
        "repeats": true,
        "question": [
          {
            "linkId": "DocumentReference.type.coding",
            "text": "code:",
            "type": "open-choice"
          },
          {
            "linkId": "DocumentReference.type.text",
            "text": "text:",
            "type": "string"
          }
        ]
      },
      {
        "http://hl7.org/fhir/Profile/questionnaire-extensions#flyover": [
          {
            "valueString": "A categorization for the type of the document. This may be implied by or derived from the code specified in the Document Type. Helps humans to assess whether the document is of interest when viewing an index of documents."
          }
        ],
        "http://www.healthintersections.com.au/fhir/Profile/metadata#type": [
          {
            "valueString": "CodeableConcept"
          }
        ],
        "linkId": "DocumentReference.class",
        "text": "Categorization of Document",
        "repeats": true,
        "question": [
          {
            "linkId": "DocumentReference.class.coding",
            "text": "code:",
            "type": "open-choice"
          },
          {
            "linkId": "DocumentReference.class.text",
            "text": "text:",
            "type": "string"
          }
        ]
      },
      {
        "http://hl7.org/fhir/Profile/questionnaire-extensions#flyover": [
          {
            "valueString": "Identifies who is responsible for adding the information to the document. Not necessarily who did the actual data entry (i.e. typist) it in or who was the source (informant)."
          }
        ],
        "linkId": "DocumentReference.author",
        "text": "Who and/or what authored the document",
        "required": true,
        "repeats": true,
        "question": [
          {
            "linkId": "DocumentReference.author._type",
            "text": "type",
            "type": "choice",
            "options": {
              "reference": "#vs3"
            },
            "group": [
              {
                "http://www.healthintersections.com.au/fhir/Profile/metadata#type": [
                  {
                    "valueString": "Reference"
                  }
                ],
                "linkId": "DocumentReference.author._Practitioner",
                "question": [
                  {
                    "http://www.healthintersections.com.au/fhir/Profile/metadata#reference": [
                      {
                        "valueString": "/Practitioner?subject=$subj&patient=$subj&encounter=$encounter"
                      }
                    ],
                    "linkId": "DocumentReference.author._Practitioner.value",
                    "text": "Practitioner",
                    "type": "reference"
                  }
                ]
              },
              {
                "http://www.healthintersections.com.au/fhir/Profile/metadata#type": [
                  {
                    "valueString": "Reference"
                  }
                ],
                "linkId": "DocumentReference.author._Device",
                "question": [
                  {
                    "http://www.healthintersections.com.au/fhir/Profile/metadata#reference": [
                      {
                        "valueString": "/Device?subject=$subj&patient=$subj&encounter=$encounter"
                      }
                    ],
                    "linkId": "DocumentReference.author._Device.value",
                    "text": "Device",
                    "type": "reference"
                  }
                ]
              },
              {
                "http://www.healthintersections.com.au/fhir/Profile/metadata#type": [
                  {
                    "valueString": "Reference"
                  }
                ],
                "linkId": "DocumentReference.author._Patient",
                "question": [
                  {
                    "http://www.healthintersections.com.au/fhir/Profile/metadata#reference": [
                      {
                        "valueString": "/Patient?subject=$subj&patient=$subj&encounter=$encounter"
                      }
                    ],
                    "linkId": "DocumentReference.author._Patient.value",
                    "text": "Patient",
                    "type": "reference"
                  }
                ]
              },
              {
                "http://www.healthintersections.com.au/fhir/Profile/metadata#type": [
                  {
                    "valueString": "Reference"
                  }
                ],
                "linkId": "DocumentReference.author._RelatedPerson",
                "question": [
                  {
                    "http://www.healthintersections.com.au/fhir/Profile/metadata#reference": [
                      {
                        "valueString": "/RelatedPerson?subject=$subj&patient=$subj&encounter=$encounter"
                      }
                    ],
                    "linkId": "DocumentReference.author._RelatedPerson.value",
                    "text": "RelatedPerson",
                    "type": "reference"
                  }
                ]
              }
            ]
          }
        ]
      },
      {
        "http://hl7.org/fhir/Profile/questionnaire-extensions#flyover": [
          {
            "valueString": "Identifies the organization or group who is responsible for ongoing maintenance of and access to the document. Identifies the logical organization to go to find the current version, where to report issues, etc. This is different from the physical location of the document, which is the technical location of the document, which host may be delegated to the management of some other organization."
          }
        ],
        "http://www.healthintersections.com.au/fhir/Profile/metadata#type": [
          {
            "valueString": "Reference"
          }
        ],
        "linkId": "DocumentReference.custodian",
        "repeats": true,
        "question": [
          {
            "http://www.healthintersections.com.au/fhir/Profile/metadata#reference": [
              {
                "valueString": "/Organization?subject=$subj&patient=$subj&encounter=$encounter"
              }
            ],
            "linkId": "DocumentReference.custodian.value",
            "text": "Org which maintains the document",
            "type": "reference"
          }
        ]
      },
      {
        "http://hl7.org/fhir/Profile/questionnaire-extensions#flyover": [
          {
            "valueString": "A reference to a domain or server that manages policies under which the document is accessed and/or made available."
          }
        ],
        "http://www.healthintersections.com.au/fhir/Profile/metadata#type": [
          {
            "valueString": "uri"
          }
        ],
        "linkId": "DocumentReference.policyManager",
        "repeats": true,
        "question": [
          {
            "linkId": "DocumentReference.policyManager.value",
            "text": "Manages access policies for the document",
            "type": "string"
          }
        ]
      },
      {
        "http://hl7.org/fhir/Profile/questionnaire-extensions#flyover": [
          {
            "valueString": "Which person or organization authenticates that this document is valid."
          }
        ],
        "linkId": "DocumentReference.authenticator",
        "text": "Who/What authenticated the document",
        "repeats": true,
        "question": [
          {
            "linkId": "DocumentReference.authenticator._type",
            "text": "type",
            "type": "choice",
            "options": {
              "reference": "#vs4"
            },
            "group": [
              {
                "http://www.healthintersections.com.au/fhir/Profile/metadata#type": [
                  {
                    "valueString": "Reference"
                  }
                ],
                "linkId": "DocumentReference.authenticator._Practitioner",
                "question": [
                  {
                    "http://www.healthintersections.com.au/fhir/Profile/metadata#reference": [
                      {
                        "valueString": "/Practitioner?subject=$subj&patient=$subj&encounter=$encounter"
                      }
                    ],
                    "linkId": "DocumentReference.authenticator._Practitioner.value",
                    "text": "Practitioner",
                    "type": "reference"
                  }
                ]
              },
              {
                "http://www.healthintersections.com.au/fhir/Profile/metadata#type": [
                  {
                    "valueString": "Reference"
                  }
                ],
                "linkId": "DocumentReference.authenticator._Organization",
                "question": [
                  {
                    "http://www.healthintersections.com.au/fhir/Profile/metadata#reference": [
                      {
                        "valueString": "/Organization?subject=$subj&patient=$subj&encounter=$encounter"
                      }
                    ],
                    "linkId": "DocumentReference.authenticator._Organization.value",
                    "text": "Organization",
                    "type": "reference"
                  }
                ]
              }
            ]
          }
        ]
      },
      {
        "http://hl7.org/fhir/Profile/questionnaire-extensions#flyover": [
          {
            "valueString": "When the document was created. Creation time is used for tracking, organizing versions and searching. This is the creation time of the document, not the source material on which it is based."
          }
        ],
        "http://www.healthintersections.com.au/fhir/Profile/metadata#type": [
          {
            "valueString": "datetime"
          }
        ],
        "linkId": "DocumentReference.created",
        "repeats": true,
        "question": [
          {
            "linkId": "DocumentReference.created.value",
            "text": "Document creation time",
            "type": "dateTime"
          }
        ]
      },
      {
        "http://hl7.org/fhir/Profile/questionnaire-extensions#flyover": [
          {
            "valueString": "When the document reference was created. Referencing/indexing time is used for tracking, organizing versions and searching."
          }
        ],
        "http://www.healthintersections.com.au/fhir/Profile/metadata#type": [
          {
            "valueString": "instant"
          }
        ],
        "linkId": "DocumentReference.indexed",
        "required": true,
        "repeats": true,
        "question": [
          {
            "linkId": "DocumentReference.indexed.value",
            "text": "When this document reference created",
            "type": "instant"
          }
        ]
      },
      {
        "http://hl7.org/fhir/Profile/questionnaire-extensions#flyover": [
          {
            "valueString": "The status of this document reference."
          }
        ],
        "http://www.healthintersections.com.au/fhir/Profile/metadata#type": [
          {
            "valueString": "code"
          }
        ],
        "linkId": "DocumentReference.status",
        "required": true,
        "repeats": true,
        "question": [
          {
            "linkId": "DocumentReference.status.value",
            "text": "status",
            "type": "choice"
          }
        ]
      },
      {
        "http://hl7.org/fhir/Profile/questionnaire-extensions#flyover": [
          {
            "valueString": "The status of the underlying document."
          }
        ],
        "http://www.healthintersections.com.au/fhir/Profile/metadata#type": [
          {
            "valueString": "CodeableConcept"
          }
        ],
        "linkId": "DocumentReference.docStatus",
        "text": "preliminary | final | appended | amended | entered in error",
        "repeats": true,
        "question": [
          {
            "linkId": "DocumentReference.docStatus.coding",
            "text": "code:",
            "type": "open-choice"
          },
          {
            "linkId": "DocumentReference.docStatus.text",
            "text": "text:",
            "type": "string"
          }
        ]
      },
      {
        "http://hl7.org/fhir/Profile/questionnaire-extensions#flyover": [
          {
            "valueString": "Relationships that this document has with other document references that already exist."
          }
        ],
        "linkId": "DocumentReference.relatesTo",
        "title": "Relationships to other documents",
        "repeats": true,
        "group": [
          {
            "http://hl7.org/fhir/Profile/questionnaire-extensions#flyover": [
              {
                "valueString": "unique id for the element within a resource (for internal references)."
              }
            ],
            "http://www.healthintersections.com.au/fhir/Profile/metadata#type": [
              {
                "valueString": "string"
              }
            ],
            "linkId": "DocumentReference.relatesTo.id",
            "repeats": true,
            "question": [
              {
                "linkId": "DocumentReference.relatesTo.id.value",
                "text": "xml:id (or equivalent in JSON)",
                "type": "string"
              }
            ]
          },
          {
            "http://hl7.org/fhir/Profile/questionnaire-extensions#flyover": [
              {
                "valueString": "The type of relationship that this document has with anther document. If this document appends another document, then the document cannot be fully understood without also accessing the referenced document."
              }
            ],
            "http://www.healthintersections.com.au/fhir/Profile/metadata#type": [
              {
                "valueString": "code"
              }
            ],
            "linkId": "DocumentReference.relatesTo.code",
            "required": true,
            "repeats": true,
            "question": [
              {
                "linkId": "DocumentReference.relatesTo.code.value",
                "text": "code",
                "type": "choice"
              }
            ]
          },
          {
            "http://hl7.org/fhir/Profile/questionnaire-extensions#flyover": [
              {
                "valueString": "The target document of this relationship."
              }
            ],
            "http://www.healthintersections.com.au/fhir/Profile/metadata#type": [
              {
                "valueString": "Reference"
              }
            ],
            "linkId": "DocumentReference.relatesTo.target",
            "required": true,
            "repeats": true,
            "question": [
              {
                "http://www.healthintersections.com.au/fhir/Profile/metadata#reference": [
                  {
                    "valueString": "/DocumentReference?subject=$subj&patient=$subj&encounter=$encounter"
                  }
                ],
                "linkId": "DocumentReference.relatesTo.target.value",
                "text": "Target of the relationship",
                "type": "reference"
              }
            ]
          }
        ]
      },
      {
        "http://hl7.org/fhir/Profile/questionnaire-extensions#flyover": [
          {
            "valueString": "Human-readable description of the source document. This is sometimes known as the \"title\". What the document is about, rather than a terse summary of the document. It is commonly the case that records do not have a title and are collectively referred to by the display name of Record code (e.g. a \"consultation\" or \"progress note\")."
          }
        ],
        "http://www.healthintersections.com.au/fhir/Profile/metadata#type": [
          {
            "valueString": "string"
          }
        ],
        "linkId": "DocumentReference.description",
        "repeats": true,
        "question": [
          {
            "linkId": "DocumentReference.description.value",
            "text": "Human-readable description (title)",
            "type": "string"
          }
        ]
      },
      {
        "http://hl7.org/fhir/Profile/questionnaire-extensions#flyover": [
          {
            "valueString": "A code specifying the level of confidentiality of the XDS Document. The interpretation of this field, and more generally enforcement and issues related to highly sensitive documents are beyond the scope of this resource. confidentialityCode can only be understood in the context of the policies, procedures, and value set specified by the context in which the document reference is being used."
          }
        ],
        "http://www.healthintersections.com.au/fhir/Profile/metadata#type": [
          {
            "valueString": "CodeableConcept"
          }
        ],
        "linkId": "DocumentReference.confidentiality",
        "text": "Sensitivity of source document",
        "repeats": true,
        "question": [
          {
            "linkId": "DocumentReference.confidentiality.coding",
            "text": "code:",
            "type": "open-choice"
          },
          {
            "linkId": "DocumentReference.confidentiality.text",
            "text": "text:",
            "type": "string"
          }
        ]
      },
      {
        "http://hl7.org/fhir/Profile/questionnaire-extensions#flyover": [
          {
            "valueString": "The primary language in which the source document is written."
          }
        ],
        "http://www.healthintersections.com.au/fhir/Profile/metadata#type": [
          {
            "valueString": "code"
          }
        ],
        "linkId": "DocumentReference.primaryLanguage",
        "repeats": true,
        "question": [
          {
            "linkId": "DocumentReference.primaryLanguage.value",
            "text": "primary language",
            "type": "choice"
          }
        ]
      },
      {
        "http://hl7.org/fhir/Profile/questionnaire-extensions#flyover": [
          {
            "valueString": "The mime type of the source document. Note: application/hl7-v3+xml for CDA. application/binary for proprietary record formats."
          }
        ],
        "http://www.healthintersections.com.au/fhir/Profile/metadata#type": [
          {
            "valueString": "code"
          }
        ],
        "linkId": "DocumentReference.mimeType",
        "required": true,
        "repeats": true,
        "question": [
          {
            "linkId": "DocumentReference.mimeType.value",
            "text": "mime type",
            "type": "choice"
          }
        ]
      },
      {
        "http://hl7.org/fhir/Profile/questionnaire-extensions#flyover": [
          {
            "valueString": "An identifier that identifies that the format and content of the document conforms to additional rules beyond the base format indicated in the mimeType. Most often used when the mime-type is text/xml."
          }
        ],
        "http://www.healthintersections.com.au/fhir/Profile/metadata#type": [
          {
            "valueString": "uri"
          }
        ],
        "linkId": "DocumentReference.format",
        "repeats": true,
        "question": [
          {
            "linkId": "DocumentReference.format.value",
            "text": "Format/content rules for the document",
            "type": "string"
          }
        ]
      },
      {
        "http://hl7.org/fhir/Profile/questionnaire-extensions#flyover": [
          {
            "valueString": "The size of the source document this reference refers to in bytes."
          }
        ],
        "http://www.healthintersections.com.au/fhir/Profile/metadata#type": [
          {
            "valueString": "integer"
          }
        ],
        "linkId": "DocumentReference.size",
        "repeats": true,
        "question": [
          {
            "linkId": "DocumentReference.size.value",
            "text": "Size of the document in bytes",
            "type": "integer"
          }
        ]
      },
      {
        "http://hl7.org/fhir/Profile/questionnaire-extensions#flyover": [
          {
            "valueString": "A hash of the source document to ensure that changes have not occurred. Whether the hash must be present and/or correct depends on the document handling rules defined in the context of use."
          }
        ],
        "http://www.healthintersections.com.au/fhir/Profile/metadata#type": [
          {
            "valueString": "binary"
          }
        ],
        "linkId": "DocumentReference.hash",
        "text": "Base64 representation of SHA1",
        "repeats": true
      },
      {
        "http://hl7.org/fhir/Profile/questionnaire-extensions#flyover": [
          {
            "valueString": "A url at which the document can be accessed."
          }
        ],
        "http://www.healthintersections.com.au/fhir/Profile/metadata#type": [
          {
            "valueString": "uri"
          }
        ],
        "linkId": "DocumentReference.location",
        "repeats": true,
        "question": [
          {
            "linkId": "DocumentReference.location.value",
            "text": "Where to access the document",
            "type": "string"
          }
        ]
      },
      {
        "http://hl7.org/fhir/Profile/questionnaire-extensions#flyover": [
          {
            "valueString": "A description of a service call that can be used to retrieve the document."
          }
        ],
        "linkId": "DocumentReference.service",
        "title": "If access is not fully described by location",
        "text": "If a document can be accessed by either a service or directly by a URL (i.e. an XDS repository with an MHD access point, or a DICOM network with a WADO portal) just provide the URL.",
        "group": [
          {
            "http://hl7.org/fhir/Profile/questionnaire-extensions#flyover": [
              {
                "valueString": "unique id for the element within a resource (for internal references)."
              }
            ],
            "http://www.healthintersections.com.au/fhir/Profile/metadata#type": [
              {
                "valueString": "string"
              }
            ],
            "linkId": "DocumentReference.service.id",
            "repeats": true,
            "question": [
              {
                "linkId": "DocumentReference.service.id.value",
                "text": "xml:id (or equivalent in JSON)",
                "type": "string"
              }
            ]
          },
          {
            "http://hl7.org/fhir/Profile/questionnaire-extensions#flyover": [
              {
                "valueString": "The type of the service that can be used to access the documents. The meaning and interpretation of the parameters depends on the service type."
              }
            ],
            "http://www.healthintersections.com.au/fhir/Profile/metadata#type": [
              {
                "valueString": "CodeableConcept"
              }
            ],
            "linkId": "DocumentReference.service.type",
            "text": "Type of service (i.e. XDS.b)",
            "required": true,
            "repeats": true,
            "question": [
              {
                "linkId": "DocumentReference.service.type.coding",
                "text": "code:",
                "type": "open-choice"
              },
              {
                "linkId": "DocumentReference.service.type.text",
                "text": "text:",
                "type": "string"
              }
            ]
          },
          {
            "http://hl7.org/fhir/Profile/questionnaire-extensions#flyover": [
              {
                "valueString": "Where the service end-point is located. Usually this is a URL, but for some services, the end-point is a simple network name or address that is not a valid URL."
              }
            ],
            "http://www.healthintersections.com.au/fhir/Profile/metadata#type": [
              {
                "valueString": "string"
              }
            ],
            "linkId": "DocumentReference.service.address",
            "repeats": true,
            "question": [
              {
                "linkId": "DocumentReference.service.address.value",
                "text": "Where service is located (usually a URL)",
                "type": "string"
              }
            ]
          },
          {
            "http://hl7.org/fhir/Profile/questionnaire-extensions#flyover": [
              {
                "valueString": "A list of named parameters that is used in the service call."
              }
            ],
            "linkId": "DocumentReference.service.parameter",
            "title": "Service call parameters",
            "text": "The interpretation of the parameters, and how to convert them into a proper service call, is dependent on the type of the service, and needs to be specified in an implementation guide somewhere.",
            "repeats": true,
            "group": [
              {
                "http://hl7.org/fhir/Profile/questionnaire-extensions#flyover": [
                  {
                    "valueString": "unique id for the element within a resource (for internal references)."
                  }
                ],
                "http://www.healthintersections.com.au/fhir/Profile/metadata#type": [
                  {
                    "valueString": "string"
                  }
                ],
                "linkId": "DocumentReference.service.parameter.id",
                "repeats": true,
                "question": [
                  {
                    "linkId": "DocumentReference.service.parameter.id.value",
                    "text": "xml:id (or equivalent in JSON)",
                    "type": "string"
                  }
                ]
              },
              {
                "http://hl7.org/fhir/Profile/questionnaire-extensions#flyover": [
                  {
                    "valueString": "The name of a parameter."
                  }
                ],
                "http://www.healthintersections.com.au/fhir/Profile/metadata#type": [
                  {
                    "valueString": "string"
                  }
                ],
                "linkId": "DocumentReference.service.parameter.name",
                "required": true,
                "repeats": true,
                "question": [
                  {
                    "linkId": "DocumentReference.service.parameter.name.value",
                    "text": "Parameter name in service call",
                    "type": "string"
                  }
                ]
              },
              {
                "http://hl7.org/fhir/Profile/questionnaire-extensions#flyover": [
                  {
                    "valueString": "The value of the named parameter."
                  }
                ],
                "http://www.healthintersections.com.au/fhir/Profile/metadata#type": [
                  {
                    "valueString": "string"
                  }
                ],
                "linkId": "DocumentReference.service.parameter.value",
                "repeats": true,
                "question": [
                  {
                    "linkId": "DocumentReference.service.parameter.value.value",
                    "text": "Parameter value for the name",
                    "type": "string"
                  }
                ]
              }
            ]
          }
        ]
      },
      {
        "http://hl7.org/fhir/Profile/questionnaire-extensions#flyover": [
          {
            "valueString": "The clinical context in which the document was prepared."
          }
        ],
        "linkId": "DocumentReference.context",
        "title": "Clinical context of document",
        "text": "These values are primarily added to help with searching for interesting/relevant documents.",
        "group": [
          {
            "http://hl7.org/fhir/Profile/questionnaire-extensions#flyover": [
              {
                "valueString": "unique id for the element within a resource (for internal references)."
              }
            ],
            "http://www.healthintersections.com.au/fhir/Profile/metadata#type": [
              {
                "valueString": "string"
              }
            ],
            "linkId": "DocumentReference.context.id",
            "repeats": true,
            "question": [
              {
                "linkId": "DocumentReference.context.id.value",
                "text": "xml:id (or equivalent in JSON)",
                "type": "string"
              }
            ]
          },
          {
            "http://hl7.org/fhir/Profile/questionnaire-extensions#flyover": [
              {
                "valueString": "This list of codes represents the main clinical acts, such as a colonoscopy or an appendectomy, being documented. In some cases, the event is inherent in the typeCode, such as a \"History and Physical Report\" in which the procedure being documented is necessarily a \"History and Physical\" act. An event can further specialize the act inherent in the type, such as \nwhere it is simply \"Procedure Report\" and the procedure was a \"colonoscopy\". If one or more event codes are included, they shall not conflict with the values inherent in the class or type elements as such a conflict would create an ambiguous situation."
              }
            ],
            "http://www.healthintersections.com.au/fhir/Profile/metadata#type": [
              {
                "valueString": "CodeableConcept"
              }
            ],
            "linkId": "DocumentReference.context.event",
            "text": "Main Clinical Acts Documented",
            "repeats": true,
            "question": [
              {
                "linkId": "DocumentReference.context.event.coding",
                "text": "code:",
                "type": "open-choice"
              },
              {
                "linkId": "DocumentReference.context.event.text",
                "text": "text:",
                "type": "string"
              }
            ]
          },
          {
            "http://hl7.org/fhir/Profile/questionnaire-extensions#flyover": [
              {
                "valueString": "The time period over which the service that is described by the document was provided."
              }
            ],
            "http://www.healthintersections.com.au/fhir/Profile/metadata#type": [
              {
                "valueString": "Period"
              }
            ],
            "linkId": "DocumentReference.context.period",
            "text": "Time of service that is being documented",
            "repeats": true,
            "question": [
              {
                "linkId": "DocumentReference.context.period.low",
                "text": "start:",
                "type": "dateTime"
              },
              {
                "linkId": "DocumentReference.context.period.end",
                "text": "end:",
                "type": "dateTime"
              }
            ]
          },
          {
            "http://hl7.org/fhir/Profile/questionnaire-extensions#flyover": [
              {
                "valueString": "The kind of facility where the patient was seen."
              }
            ],
            "http://www.healthintersections.com.au/fhir/Profile/metadata#type": [
              {
                "valueString": "CodeableConcept"
              }
            ],
            "linkId": "DocumentReference.context.facilityType",
            "text": "Kind of facility where patient was seen",
            "repeats": true,
            "question": [
              {
                "linkId": "DocumentReference.context.facilityType.coding",
                "text": "code:",
                "type": "open-choice"
              },
              {
                "linkId": "DocumentReference.context.facilityType.text",
                "text": "text:",
                "type": "string"
              }
            ]
          }
        ]
      }
    ]
  }
}